Frequency[MHz];Amplitude RX1[mV] at pwm=60
 45.000;1271
 45.063;1669
 45.125;1989
 45.188;1872
 45.250;1894
 45.313;1962
 45.375;1752
 45.438;1726
 45.500;1669
 45.563;1669
 45.625;1679
 45.688;1691
 45.750;1796
 45.813;1896
 45.875;1987
 45.938;2011
 46.000;2060
 46.063;2041
 46.125;2009
 46.188;1938
 46.250;1840
 46.313;1779
 46.375;1730
 46.438;1694
 46.500;1694
 46.563;1672
 46.625;1677
 46.688;1687
 46.750;1684
 46.813;1677
 46.875;1704
 46.938;1818
 47.000;1989
 47.063;2048
 47.125;2104
 47.188;2141
 47.250;2124
 47.313;2084
 47.375;2053
 47.438;1877
 47.500;1774
 47.563;1752
 47.625;1772
 47.688;1789
 47.750;1816
 47.813;1816
 47.875;1833
 47.938;1862
 48.000;1875
 48.063;1901
 48.125;1892
 48.188;1909
 48.250;1916
 48.313;1933
 48.375;1896
 48.438;1938
 48.500;1879
 48.563;1867
 48.625;1862
 48.688;1845
 48.750;1833
 48.813;1887
 48.875;1914
 48.938;1940
 49.000;1945
 49.063;1970
 49.125;1979
 49.188;1970
 49.250;1972
 49.313;2001
 49.375;2021
 49.438;2014
 49.500;1997
 49.563;2006
 49.625;1997
 49.688;1992
 49.750;2026
 49.813;1999
 49.875;2011
 49.938;2009
 50.000;2014
 50.063;2016
 50.125;2016
 50.188;2004
 50.250;2016
 50.313;2026
 50.375;2009
 50.438;2038
 50.500;2043
 50.563;2041
 50.625;2060
 50.688;2041
 50.750;2033
 50.813;2058
 50.875;2050
 50.938;2038
 51.000;2021
 51.063;2011
 51.125;2021
 51.188;1999
 51.250;1994
 51.313;2006
 51.375;2006
 51.438;1992
 51.500;1992
 51.563;1960
 51.625;1979
 51.688;1970
 51.750;1987
 51.813;1997
 51.875;1994
 51.938;1975
 52.000;1965
 52.063;1967
 52.125;1958
 52.188;1950
 52.250;1962
 52.313;1972
 52.375;1972
 52.438;1970
 52.500;1979
 52.563;1962
 52.625;1972
 52.688;1960
 52.750;1950
 52.813;1948
 52.875;1982
 52.938;1970
 53.000;1962
 53.063;1933
 53.125;1943
 53.188;1979
 53.250;1975
 53.313;1967
 53.375;1965
 53.438;1962
 53.500;1955
 53.563;1933
 53.625;1945
 53.688;1916
 53.750;1955
 53.813;1958
 53.875;1960
 53.938;1982
 54.000;1962
 54.063;1960
 54.125;1965
 54.188;1979
 54.250;1975
 54.313;1975
 54.375;1928
 54.438;1955
 54.500;1965
 54.563;1984
 54.625;1984
 54.688;1992
 54.750;2004
 54.813;2043
 54.875;2109
 54.938;2153
 55.000;2194
 55.063;2246
 55.125;2275
 55.188;2260
 55.250;2268
 55.313;2263
 55.375;2233
 55.438;2209
 55.500;2165
 55.563;2033
 55.625;2004
 55.688;2009
 55.750;1948
 55.813;1901
 55.875;1906
 55.938;1906
 56.000;1850
 56.063;1875
 56.125;1889
 56.188;1848
 56.250;1806
 56.313;1909
 56.375;1950
 56.438;1938
 56.500;1857
 56.563;1833
 56.625;1843
 56.688;1853
 56.750;1892
 56.813;1909
 56.875;1918
 56.938;1884
 57.000;1894
 57.063;1879
 57.125;1892
 57.188;1875
 57.250;1943
 57.313;1955
 57.375;2011
 57.438;2055
 57.500;2060
 57.563;2041
 57.625;2021
 57.688;1979
 57.750;1940
 57.813;1909
 57.875;1911
 57.938;1892
 58.000;1906
 58.063;1877
 58.125;1921
 58.188;1906
 58.250;1909
 58.313;1892
 58.375;1855
 58.438;1804
 58.500;1826
 58.563;1760
 58.625;1794
 58.688;1782
 58.750;1787
 58.813;1774
 58.875;1791
 58.938;1787
 59.000;1774
 59.063;1752
 59.125;1787
 59.188;1796
 59.250;1794
 59.313;1777
 59.375;1826
 59.438;2011
 59.500;2241
 59.563;2343
 59.625;2351
 59.688;2353
 59.750;2351
 59.813;2346
 59.875;2287
 59.938;2099
 60.000;1875
 60.063;1735
 60.125;1730
 60.188;1704
 60.250;1728
 60.313;1728
 60.375;1730
 60.438;1669
 60.500;1699
 60.563;1652
 60.625;1696
 60.688;1699
 60.750;1699
 60.813;1694
 60.875;1708
 60.938;1740
 61.000;1806
 61.063;1826
 61.125;1784
 61.188;1777
 61.250;1789
 61.313;1772
 61.375;1770
 61.438;1777
 61.500;1757
 61.563;1774
 61.625;1762
 61.688;1865
 61.750;1889
 61.813;1950
 61.875;1914
 61.938;1884
 62.000;1831
 62.063;1767
 62.125;1684
 62.188;1748
 62.250;1630
 62.313;1713
 62.375;1840
 62.438;1823
 62.500;1635
 62.563;1669
 62.625;1647
 62.688;1645
 62.750;1640
 62.813;1625
 62.875;1674
 62.938;1591
 63.000;1616
 63.063;1599
 63.125;1677
 63.188;1611
 63.250;1630
 63.313;1618
 63.375;1660
 63.438;1679
 63.500;1689
 63.563;1728
 63.625;1755
 63.688;1787
 63.750;1855
 63.813;1860
 63.875;1892
 63.938;1916
 64.000;1943
 64.063;1962
 64.125;2028
 64.188;2075
 64.250;2124
 64.313;2067
 64.375;2055
 64.438;1992
 64.500;1901
 64.563;1860
 64.625;1867
 64.688;1911
 64.750;1877
 64.813;1860
 64.875;1848
 64.938;1872
 65.000;1821
 65.063;1794
 65.125;1804
 65.188;1811
 65.250;1806
 65.313;1794
 65.375;1787
 65.438;1772
 65.500;1765
 65.563;1772
 65.625;1779
 65.688;1796
 65.750;1796
 65.813;1811
 65.875;1823
 65.938;1804
 66.000;1806
 66.063;1791
 66.125;1794
 66.188;1806
 66.250;1804
 66.313;1804
 66.375;1809
 66.438;1779
 66.500;1787
 66.563;1809
 66.625;1801
 66.688;1799
 66.750;1799
 66.813;1811
 66.875;1850
 66.938;1906
 67.000;1955
 67.063;1916
 67.125;1916
 67.188;1889
 67.250;1850
 67.313;1831
 67.375;1818
 67.438;1870
 67.500;1821
 67.563;1816
 67.625;1813
 67.688;1823
 67.750;1806
 67.813;1806
 67.875;1809
 67.938;1784
 68.000;1801
 68.063;1809
 68.125;1801
 68.188;1799
 68.250;1804
 68.313;1784
 68.375;1806
 68.438;1809
 68.500;1835
 68.563;1870
 68.625;1870
 68.688;1901
 68.750;1911
 68.813;1909
 68.875;1911
 68.938;1928
 69.000;1887
 69.063;1953
 69.125;1970
 69.188;1987
 69.250;1945
 69.313;1977
 69.375;1943
 69.438;1987
 69.500;2031
 69.563;1984
 69.625;1987
 69.688;1975
 69.750;1979
 69.813;1994
 69.875;2014
 69.938;1958
 70.000;1970
 70.063;2019
 70.125;2019
 70.188;1987
 70.250;1999
 70.313;1982
 70.375;2004
 70.438;1965
 70.500;1970
 70.563;1989
 70.625;2006
 70.688;2023
 70.750;1989
 70.813;2009
 70.875;2006
 70.938;2026
 71.000;2001
 71.063;2053
 71.125;2221
 71.188;2268
 71.250;2272
 71.313;2253
 71.375;2248
 71.438;2104
 71.500;2043
 71.563;2031
 71.625;2014
 71.688;2028
 71.750;2011
 71.813;2006
 71.875;2026
 71.938;1987
 72.000;2009
 72.063;2014
 72.125;1994
 72.188;2031
 72.250;2036
 72.313;2045
 72.375;2033
 72.438;2026
 72.500;2031
 72.563;2036
 72.625;1989
 72.688;2004
 72.750;1984
 72.813;2033
 72.875;2038
 72.938;2021
 73.000;2050
 73.063;2043
 73.125;2055
 73.188;2033
 73.250;2036
 73.313;2026
 73.375;2043
 73.438;2016
 73.500;2099
 73.563;2185
 73.625;2189
 73.688;2155
 73.750;2145
 73.813;2109
 73.875;2036
 73.938;2031
 74.000;1904
 74.063;1938
 74.125;1962
 74.188;1953
 74.250;2004
 74.313;2141
 74.375;2177
 74.438;2187
 74.500;2182
 74.563;2136
 74.625;2058
 74.688;2001
 74.750;1984
 74.813;1975
 74.875;1975
 74.938;2006
 75.000;2097
 75.063;2207
 75.125;2224
 75.188;2180
 75.250;2172
 75.313;2111
 75.375;1987
 75.438;1979
 75.500;1950
 75.563;1960
 75.625;1953
 75.688;1967
 75.750;1948
 75.813;1948
 75.875;1950
 75.938;1943
 76.000;1936
 76.063;1926
 76.125;1918
 76.188;1936
 76.250;1928
 76.313;1918
 76.375;1921
 76.438;1921
 76.500;1899
 76.563;1918
 76.625;1948
 76.688;2033
 76.750;2111
 76.813;2202
 76.875;2182
 76.938;2128
 77.000;2033
 77.063;1953
 77.125;1887
 77.188;1870
 77.250;1872
 77.313;1870
 77.375;1887
 77.438;1853
 77.500;1867
 77.563;1843
 77.625;1879
 77.688;1855
 77.750;1870
 77.813;1853
 77.875;1875
 77.938;1875
 78.000;1872
 78.063;1848
 78.125;1850
 78.188;1875
 78.250;1892
 78.313;2070
 78.375;2167
 78.438;2180
 78.500;2128
 78.563;2094
 78.625;1984
 78.688;1867
 78.750;1816
 78.813;1801
 78.875;1796
 78.938;1757
 79.000;1791
 79.063;1789
 79.125;1799
 79.188;1806
 79.250;1811
 79.313;1884
 79.375;2111
 79.438;2290
 79.500;2331
 79.563;2341
 79.625;2326
 79.688;2316
 79.750;2214
 79.813;1997
 79.875;1826
 79.938;1767
 80.000;1767
 80.063;1701
 80.125;1723
 80.188;1711
 80.250;1682
 80.313;1699
 80.375;1674
 80.438;1657
 80.500;1650
 80.563;1696
 80.625;1682
 80.688;1662
 80.750;1682
 80.813;1823
 80.875;1857
 80.938;1745
 81.000;1704
 81.063;1738
 81.125;1757
 81.188;1735
 81.250;1738
 81.313;1733
 81.375;1723
 81.438;1694
 81.500;1687
 81.563;1699
 81.625;1726
 81.688;1752
 81.750;1735
 81.813;1755
 81.875;1745
 81.938;1787
 82.000;1760
 82.063;1752
 82.125;1740
 82.188;1728
 82.250;1696
 82.313;1699
 82.375;1726
 82.438;1745
 82.500;1748
 82.563;1713
 82.625;1713
 82.688;1716
 82.750;1721
 82.813;1711
 82.875;1684
 82.938;1657
 83.000;1647
 83.063;1625
 83.125;1618
 83.188;1604
 83.250;1630
 83.313;1643
 83.375;1655
 83.438;1662
 83.500;1716
 83.563;1733
 83.625;1755
 83.688;1791
 83.750;1799
 83.813;1796
 83.875;1896
 83.938;2172
 84.000;2316
 84.063;2348
 84.125;2351
 84.188;2351
 84.250;2348
 84.313;2333
 84.375;2202
 84.438;1960
 84.500;1821
 84.563;1750
 84.625;1772
 84.688;1760
 84.750;1726
 84.813;1740
 84.875;1755
 84.938;1718
 85.000;1672
 85.063;1669
 85.125;1672
 85.188;1650
 85.250;1618
 85.313;1643
 85.375;1687
 85.438;1677
 85.500;1757
 85.563;1706
 85.625;1662
 85.688;1662
 85.750;1677
 85.813;1672
 85.875;1669
 85.938;1645
 86.000;1660
 86.063;1669
 86.125;1677
 86.188;1677
 86.250;1672
 86.313;1696
 86.375;1667
 86.438;1665
 86.500;1677
 86.563;1674
 86.625;1682
 86.688;1691
 86.750;1750
 86.813;1796
 86.875;1816
 86.938;1721
 87.000;1674
 87.063;1640
 87.125;1621
 87.188;1516
 87.250;1479
 87.313;1423
 87.375;1389
 87.438;1411
 87.500;1423
 87.563;1372
 87.625;1538
 87.688;1669
 87.750;1940
 87.813;2023
 87.875;2011
 87.938;1647
 88.000;1474
 88.063;1535
 88.125;1621
 88.188;1630
 88.250;1650
 88.313;1574
 88.375;1435
 88.438;1450
 88.500;1662
 88.563;1418
 88.625;1416
 88.688;1455
 88.750;1484
 88.813;1574
 88.875;1662
 88.938;1489
 89.000;1616
 89.063;1713
 89.125;1501
 89.188;1376
 89.250;1425
 89.313;1452
 89.375;1447
 89.438;1577
 89.500;1540
 89.563;1457
 89.625;1464
 89.688;1491
 89.750;1462
 89.813;1479
 89.875;1491
 89.938;1499
 90.000;1445
 90.063;1574
 90.125;1743
 90.188;1911
 90.250;2075
 90.313;2114
 90.375;2102
 90.438;2077
 90.500;2041
 90.563;1784
 90.625;1757
 90.688;1665
 90.750;1621
 90.813;1674
 90.875;1872
 90.938;2175
 91.000;2309
 91.063;2333
 91.125;2346
 91.188;2336
 91.250;2331
 91.313;2265
 91.375;1965
 91.438;1870
 91.500;1691
 91.563;1618
 91.625;1723
 91.688;1909
 91.750;2033
 91.813;2053
 91.875;2036
 91.938;2038
 92.000;1989
 92.063;1950
 92.125;1862
 92.188;1689
 92.250;1665
 92.313;1650
 92.375;1640
 92.438;1799
 92.500;1855
 92.563;2011
 92.625;1999
 92.688;1994
 92.750;1972
 92.813;1997
 92.875;1967
 92.938;1931
 93.000;1850
 93.063;1762
 93.125;1633
 93.188;1691
 93.250;1752
 93.313;2031
 93.375;2092
 93.438;2248
 93.500;2309
 93.563;2275
 93.625;2255
 93.688;2224
 93.750;1970
 93.813;1896
 93.875;1740
 93.938;1596
 94.000;1630
 94.063;1804
 94.125;1896
 94.188;2197
 94.250;2260
 94.313;2277
 94.375;2255
 94.438;2224
 94.500;2155
 94.563;1967
 94.625;1838
 94.688;1738
 94.750;1767
 94.813;1853
 94.875;2197
 94.938;2246
 95.000;2302
 95.063;2304
 95.125;2270
 95.188;2246
 95.250;2045
 95.313;1994
 95.375;1931
 95.438;1772
 95.500;1743
 95.563;1701
 95.625;1850
 95.688;1909
 95.750;2009
 95.813;2016
 95.875;2031
 95.938;2031
 96.000;2001
 96.063;1960
 96.125;1923
 96.188;1877
 96.250;1765
 96.313;1735
 96.375;1733
 96.438;1860
 96.500;1977
 96.563;2111
 96.625;2253
 96.688;2316
 96.750;2312
 96.813;2290
 96.875;2253
 96.938;2141
 97.000;1914
 97.063;1818
 97.125;1662
 97.188;1752
 97.250;1777
 97.313;1960
 97.375;2006
 97.438;2023
 97.500;2028
 97.563;1982
 97.625;1979
 97.688;1933
 97.750;1875
 97.813;1850
 97.875;1665
 97.938;1726
 98.000;1718
 98.063;1838
 98.125;1960
 98.188;2192
 98.250;2253
 98.313;2282
 98.375;2255
 98.438;2253
 98.500;2172
 98.563;2004
 98.625;1884
 98.688;1799
 98.750;1472
 98.813;1647
 98.875;1738
 98.938;1767
 99.000;1789
 99.063;1809
 99.125;1816
 99.188;1723
 99.250;1677
 99.313;1730
 99.375;1789
 99.438;1821
 99.500;1765
 99.563;1752
 99.625;1640
 99.688;1562
 99.750;1628
 99.813;1816
 99.875;1813
 99.938;1743
100.000;1728
100.063;1555
100.125;1674
100.188;1657
100.250;1586
100.313;1567
100.375;1562
100.438;1572
100.500;1638
100.563;1635
100.625;1718
100.688;1896
100.750;1950
100.813;1831
100.875;1723
100.938;1640
101.000;1542
101.063;1579
101.125;1440
101.188;1484
101.250;1511
101.313;1474
101.375;1479
101.438;1525
101.500;1801
101.563;1843
101.625;1699
101.688;1501
101.750;1418
101.813;1166
101.875;1206
101.938;1599
102.000;1708
102.063;1542
102.125;1462
102.188;1455
102.250;1640
102.313;1704
102.375;1716
102.438;1733
102.500;1650
102.563;1496
102.625;1279
102.688;1379
102.750;1325
102.813;1206
102.875;1213
102.938;1281
103.000;1416
103.063;1433
103.125;1206
103.188;1147
103.250;1083
103.313;1191
103.375;1748
103.438;1750
103.500;1430
103.563;1462
103.625;1599
103.688;1687
103.750;1884
103.813;2167
103.875;2294
103.938;2343
104.000;2351
104.063;2355
104.125;2351
104.188;2333
104.250;2241
104.313;2053
104.375;1799
104.438;1450
104.500;1286
104.563;1171
104.625;1157
104.688;1145
104.750;1418
104.813;1254
104.875;1174
104.938;1066
105.000;1232
105.063;1069
105.125;1093
105.188;1210
105.250;1113
105.313;1428
105.375;1904
105.438;1833
105.500;1286
105.563;1154
105.625;1398
105.688;1628
105.750;1481
105.813;1440
105.875;1376
105.938;1264
106.000;1110
106.063;1081
106.125;1079
106.188;1096
106.250;1213
106.313;1335
106.375;1352
106.438;1481
106.500;1696
106.563;1110
106.625;1257
106.688;1799
106.750;2060
106.813;1838
106.875;1166
106.938;1083
107.000;1113
107.063;1162
107.125;1252
107.188;1115
107.250;1110
107.313;1154
107.375;1293
107.438;1269
107.500;1081
107.563;1142
107.625;1164
107.688;1157
107.750;1206
107.813;1394
107.875;1640
107.938;1862
108.000;1992
108.063;2033
108.125;2106
108.188;2065
108.250;1948
108.313;1621
108.375;1333
108.438;1320
108.500;1418
108.563;1447
108.625;1425
108.688;1428
108.750;1440
108.813;1442
108.875;1428
108.938;1442
109.000;1452
109.063;1455
109.125;1459
109.188;1464
109.250;1447
109.313;1440
109.375;1411
109.438;1425
109.500;1447
109.563;1420
109.625;1450
109.688;1442
109.750;1442
109.813;1420
109.875;1442
109.938;1413
110.000;1437
110.063;1440
110.125;1464
110.188;1469
110.250;1467
110.313;1464
110.375;1474
110.438;1479
110.500;1491
110.563;1440
110.625;1442
110.688;1474
110.750;1525
110.813;1694
110.875;1984
110.938;2026
111.000;2094
111.063;2026
111.125;1999
111.188;1882
111.250;1728
111.313;1667
111.375;1684
111.438;1706
111.500;1638
111.563;1582
111.625;1555
111.688;1433
111.750;1394
111.813;1430
111.875;1455
111.938;1455
112.000;1489
112.063;1501
112.125;1486
112.188;1547
112.250;1506
112.313;1489
112.375;1499
112.438;1469
112.500;1440
112.563;1459
112.625;1430
112.688;1455
112.750;1455
112.813;1430
112.875;1457
112.938;1496
113.000;1518
113.063;1530
113.125;1555
113.188;1618
113.250;1901
113.313;2048
113.375;2072
113.438;2050
113.500;2053
113.563;2023
113.625;1770
113.688;1584
113.750;1579
113.813;1564
113.875;1557
113.938;1586
114.000;1638
114.063;1923
114.125;2053
114.188;2087
114.250;2058
114.313;2016
114.375;1989
114.438;1821
114.500;1564
114.563;1555
114.625;1525
114.688;1662
114.750;1975
114.813;2084
114.875;2150
114.938;2128
115.000;2087
115.063;2038
115.125;1960
115.188;1601
115.250;1552
115.313;1469
115.375;1433
115.438;1479
115.500;1508
115.563;1513
115.625;1535
115.688;1516
115.750;1501
115.813;1477
115.875;1481
115.938;1457
116.000;1452
116.063;1452
116.125;1455
116.188;1428
116.250;1484
116.313;1564
116.375;1684
116.438;1953
116.500;2145
116.563;2197
116.625;2199
116.688;2163
116.750;2126
116.813;1989
116.875;1767
116.938;1574
117.000;1533
117.063;1525
117.125;1481
117.188;1464
117.250;1464
117.313;1484
117.375;1503
117.438;1506
117.500;1511
117.563;1486
117.625;1469
117.688;1462
117.750;1459
117.813;1452
117.875;1457
117.938;1552
118.000;1728
118.063;1882
118.125;2031
118.188;2138
118.250;2082
118.313;2087
118.375;1943
118.438;1843
118.500;1611
118.563;1435
118.625;1420
118.688;1477
118.750;1503
118.813;1503
118.875;1523
118.938;1528
119.000;1540
119.063;1528
119.125;1550
119.188;1706
119.250;1779
119.313;1831
119.375;1787
119.438;1779
119.500;1767
119.563;1743
119.625;1687
119.688;1669
119.750;1643
119.813;1601
119.875;1564
119.938;1542
120.000;1452
120.063;1420
120.125;1396
120.188;1398
120.250;1406
120.313;1420
120.375;1440
120.438;1442
120.500;1481
120.563;1525
120.625;1547
120.688;1560
120.750;1530
120.813;1474
120.875;1420
120.938;1396
121.000;1418
121.063;1413
121.125;1428
121.188;1413
121.250;1401
121.313;1374
121.375;1398
121.438;1437
121.500;1428
121.563;1425
121.625;1442
121.688;1464
121.750;1462
121.813;1437
121.875;1433
121.938;1389
122.000;1401
122.063;1401
122.125;1462
122.188;1464
122.250;1496
122.313;1506
122.375;1457
122.438;1425
122.500;1401
122.563;1386
122.625;1386
122.688;1381
122.750;1386
122.813;1376
122.875;1379
122.938;1379
123.000;1384
123.063;1376
123.125;1362
123.188;1372
123.250;1374
123.313;1376
123.375;1401
123.438;1425
123.500;1455
123.563;1635
123.625;1779
123.688;1938
123.750;2248
123.813;2314
123.875;2343
123.938;2341
124.000;2331
124.063;2294
124.125;2109
124.188;1948
124.250;1772
124.313;1474
124.375;1408
124.438;1401
124.500;1386
124.563;1384
124.625;1381
124.688;1403
124.750;1379
124.813;1372
124.875;1394
124.938;1413
125.000;1433
125.063;1437
125.125;1413
125.188;1403
125.250;1357
125.313;1357
125.375;1359
125.438;1362
125.500;1369
125.563;1372
125.625;1381
125.688;1381
125.750;1376
125.813;1381
125.875;1423
125.938;1657
126.000;1643
126.063;1711
126.125;1691
126.188;1643
126.250;1555
126.313;1491
126.375;1528
126.438;1574
126.500;1530
126.563;1601
126.625;1579
126.688;1542
126.750;1508
126.813;1467
126.875;1428
126.938;1384
127.000;1359
127.063;1337
127.125;1342
127.188;1340
127.250;1333
127.313;1350
127.375;1357
127.438;1357
127.500;1362
127.563;1379
127.625;1396
127.688;1425
127.750;1459
127.813;1625
127.875;1752
127.938;1752
128.000;1789
128.063;1740
128.125;1657
128.188;1530
128.250;1484
128.313;1516
128.375;1511
128.438;1511
128.500;1506
128.563;1494
128.625;1528
128.688;1516
128.750;1582
128.813;1572
128.875;1591
128.938;1606
129.000;1567
129.063;1538
129.125;1550
129.188;1494
129.250;1457
129.313;1503
129.375;1496
129.438;1501
129.500;1591
129.563;1623
129.625;1650
129.688;1645
129.750;1616
129.813;1591
129.875;1567
129.938;1518
130.000;1545
130.063;1520
130.125;1564
130.188;1540
130.250;1625
130.313;1582
130.375;1635
130.438;1640
130.500;1613
130.563;1596
130.625;1530
130.688;1552
130.750;1552
130.813;1669
130.875;1682
130.938;1657
131.000;1625
131.063;1555
131.125;1511
131.188;1496
131.250;1499
131.313;1484
131.375;1479
131.438;1474
131.500;1462
131.563;1464
131.625;1486
131.688;1469
131.750;1506
131.813;1540
131.875;1564
131.938;1552
132.000;1599
132.063;1640
132.125;1611
132.188;1596
132.250;1586
132.313;1552
132.375;1496
132.438;1474
132.500;1506
132.563;1508
132.625;1484
132.688;1506
132.750;1494
132.813;1474
132.875;1467
132.938;1489
133.000;1525
133.063;1489
133.125;1523
133.188;1535
133.250;1579
133.313;1582
133.375;1564
133.438;1552
133.500;1560
133.563;1577
133.625;1564
133.688;1599
133.750;1562
133.813;1535
133.875;1569
133.938;1550
134.000;1577
134.063;1611
134.125;1572
134.188;1557
134.250;1523
134.313;1491
134.375;1503
134.438;1491
134.500;1494
134.563;1518
134.625;1577
134.688;1708
134.750;1770
134.813;1757
134.875;1711
134.938;1699
135.000;1572
135.063;1503
135.125;1501
135.188;1499
135.250;1484
135.313;1538
135.375;1718
135.438;1762
135.500;1774
135.563;1672
135.625;1713
135.688;1601
135.750;1486
135.813;1469
135.875;1464
135.938;1472
136.000;1452
136.063;1442
136.125;1462
136.188;1469
136.250;1486
136.313;1506
136.375;1530
136.438;1545
136.500;1535
136.563;1513
136.625;1481
136.688;1472
136.750;1457
136.813;1486
136.875;1491
136.938;1523
137.000;1508
137.063;1494
137.125;1499
137.188;1503
137.250;1499
137.313;1496
137.375;1545
137.438;1586
137.500;1591
137.563;1777
137.625;1838
137.688;1872
137.750;1811
137.813;1804
137.875;1669
137.938;1633
138.000;1779
138.063;1757
138.125;1750
138.188;1740
138.250;1677
138.313;1523
138.375;1437
138.438;1435
138.500;1425
138.563;1484
138.625;1472
138.688;1481
138.750;1477
138.813;1459
138.875;1447
138.938;1577
139.000;1647
139.063;1787
139.125;1865
139.188;1923
139.250;1887
139.313;1882
139.375;1872
139.438;1892
139.500;1826
139.563;1789
139.625;1755
139.688;1623
139.750;1535
139.813;1540
139.875;1499
139.938;1503
140.000;1506
140.063;1474
140.125;1459
140.188;1491
140.250;1464
140.313;1464
140.375;1442
140.438;1425
140.500;1408
140.563;1418
140.625;1396
140.688;1413
140.750;1428
140.813;1413
140.875;1491
140.938;1535
141.000;1538
141.063;1513
141.125;1496
141.188;1459
141.250;1459
141.313;1462
141.375;1484
141.438;1477
141.500;1516
141.563;1535
141.625;1616
141.688;1545
141.750;1535
141.813;1508
141.875;1467
141.938;1450
142.000;1442
142.063;1447
142.125;1440
142.188;1445
142.250;1442
142.313;1428
142.375;1430
142.438;1440
142.500;1420
142.563;1433
142.625;1428
142.688;1423
142.750;1420
142.813;1403
142.875;1408
142.938;1423
143.000;1413
143.063;1420
143.125;1425
143.188;1416
143.250;1442
143.313;1442
143.375;1450
143.438;1435
143.500;1433
143.563;1455
143.625;1711
143.688;1811
143.750;1857
143.813;1826
143.875;1799
143.938;1789
144.000;1628
144.063;1557
144.125;1538
144.188;1520
144.250;1477
144.313;1452
144.375;1437
144.438;1423
144.500;1433
144.563;1433
144.625;1437
144.688;1452
144.750;1433
144.813;1420
144.875;1435
144.938;1423
145.000;1413
145.063;1428
145.125;1430
145.188;1433
145.250;1442
145.313;1445
145.375;1464
145.438;1430
145.500;1445
145.563;1428
145.625;1437
145.688;1433
145.750;1452
145.813;1564
145.875;1552
145.938;1589
146.000;1596
146.063;1535
146.125;1489
146.188;1447
146.250;1447
146.313;1459
146.375;1455
146.438;1459
146.500;1464
146.563;1455
146.625;1445
146.688;1447
146.750;1435
146.813;1423
146.875;1435
146.938;1416
147.000;1428
147.063;1413
147.125;1420
147.188;1425
147.250;1430
147.313;1437
147.375;1440
147.438;1440
147.500;1442
147.563;1430
147.625;1425
147.688;1401
147.750;1413
147.813;1423
147.875;1428
147.938;1433
148.000;1428
148.063;1452
148.125;1440
148.188;1447
148.250;1440
148.313;1447
148.375;1459
148.438;1457
148.500;1464
148.563;1442
148.625;1467
148.688;1433
148.750;1447
148.813;1452
148.875;1440
148.938;1437
149.000;1433
149.063;1425
149.125;1418
149.188;1430
149.250;1442
149.313;1494
149.375;1677
149.438;1740
149.500;1772
149.563;1682
149.625;1701
149.688;1584
149.750;1496
149.813;1481
149.875;1489
149.938;1499
150.000;1516
150.063;1499
150.125;1513
150.188;1494
150.250;1496
150.313;1501
150.375;1472
150.438;1462
150.500;1447
150.563;1489
150.625;1589
150.688;1760
150.750;1791
150.813;1748
150.875;1713
150.938;1657
151.000;1540
151.063;1445
151.125;1423
151.188;1430
151.250;1418
151.313;1408
151.375;1416
151.438;1411
151.500;1440
151.563;1433
151.625;1459
151.688;1445
151.750;1452
151.813;1452
151.875;1459
151.938;1474
152.000;1479
152.063;1464
152.125;1450
152.188;1423
152.250;1406
152.313;1406
152.375;1413
152.438;1406
152.500;1401
152.563;1394
152.625;1398
152.688;1391
152.750;1398
152.813;1396
152.875;1420
152.938;1403
153.000;1638
153.063;1672
153.125;1679
153.188;1711
153.250;1674
153.313;1621
153.375;1613
153.438;1447
153.500;1437
153.563;1442
153.625;1452
153.688;1452
153.750;1486
153.813;1564
153.875;1618
153.938;1696
154.000;1672
154.063;1650
154.125;1608
154.188;1520
154.250;1499
154.313;1494
154.375;1462
154.438;1447
154.500;1511
154.563;1665
154.625;1699
154.688;1684
154.750;1652
154.813;1618
154.875;1557
154.938;1574
155.000;1586
155.063;1552
155.125;1645
155.188;1818
155.250;2060
155.313;2163
155.375;2197
155.438;2148
155.500;2172
155.563;1931
155.625;1752
155.688;1599
155.750;1474
155.813;1491
155.875;1496
155.938;1511
156.000;1511
156.063;1472
156.125;1462
156.188;1569
156.250;1672
156.313;1738
156.375;1752
156.438;1708
156.500;1696
156.563;1562
156.625;1455
156.688;1459
156.750;1491
156.813;1486
156.875;1472
156.938;1479
157.000;1433
157.063;1440
157.125;1413
157.188;1396
157.250;1398
157.313;1416
157.375;1401
157.438;1435
157.500;1437
157.563;1437
157.625;1435
157.688;1430
157.750;1430
157.813;1489
157.875;1606
157.938;1667
158.000;1630
158.063;1584
158.125;1542
158.188;1452
158.250;1403
158.313;1394
158.375;1413
158.438;1416
158.500;1447
158.563;1437
158.625;1442
158.688;1452
158.750;1425
158.813;1469
158.875;1474
158.938;1547
159.000;1586
159.063;1633
159.125;1596
159.188;1596
159.250;1611
159.313;1625
159.375;1604
159.438;1569
159.500;1552
159.563;1542
159.625;1577
159.688;1628
159.750;1552
159.813;1555
159.875;1540
159.938;1511
160.000;1494
160.063;1525
160.125;1467
160.188;1474
160.250;1447
160.313;1428
160.375;1418
160.438;1406
160.500;1416
160.563;1413
160.625;1425
160.688;1621
160.750;1804
160.813;1884
160.875;1884
160.938;1853
161.000;1828
161.063;1689
161.125;1511
161.188;1452
161.250;1457
161.313;1440
161.375;1464
161.438;1472
161.500;1469
161.563;1462
161.625;1459
161.688;1430
161.750;1418
161.813;1406
161.875;1423
161.938;1435
162.000;1442
162.063;1437
162.125;1435
162.188;1420
162.250;1425
162.313;1430
162.375;1428
162.438;1420
162.500;1416
162.563;1413
162.625;1408
162.688;1420
162.750;1416
162.813;1413
162.875;1396
162.938;1386
163.000;1401
163.063;1396
163.125;1403
163.188;1391
163.250;1408
163.313;1401
163.375;1416
163.438;1540
163.500;1660
163.563;1923
163.625;1982
163.688;1972
163.750;1921
163.813;1894
163.875;1992
163.938;2070
164.000;2124
164.063;2065
164.125;2048
164.188;1960
164.250;1745
164.313;1535
164.375;1411
164.438;1381
164.500;1384
164.563;1416
164.625;1420
164.688;1442
164.750;1440
164.813;1435
164.875;1428
164.938;1418
165.000;1420
165.063;1423
165.125;1430
165.188;1452
165.250;1452
165.313;1464
165.375;1430
165.438;1462
165.500;1457
165.563;1459
165.625;1464
165.688;1462
165.750;1477
165.813;1474
165.875;1452
165.938;1440
166.000;1423
166.063;1403
166.125;1442
166.188;1464
166.250;1450
166.313;1447
166.375;1440
166.438;1418
166.500;1406
166.563;1403
166.625;1396
166.688;1391
166.750;1381
166.813;1389
166.875;1381
166.938;1376
167.000;1394
167.063;1423
167.125;1479
167.188;1525
167.250;1501
167.313;1462
167.375;1484
167.438;1386
167.500;1389
167.563;1376
167.625;1386
167.688;1401
167.750;1430
167.813;1474
167.875;1511
167.938;1530
168.000;1530
168.063;1506
168.125;1484
168.188;1435
168.250;1396
168.313;1389
168.375;1369
168.438;1379
168.500;1416
168.563;1418
168.625;1430
168.688;1423
168.750;1420
168.813;1408
168.875;1398
168.938;1398
169.000;1408
169.063;1445
169.125;1552
169.188;1801
169.250;2048
169.313;2121
169.375;2155
169.438;2097
169.500;2089
169.563;1955
169.625;1755
169.688;1538
169.750;1408
169.813;1376
169.875;1369
169.938;1362
170.000;1376
170.063;1379
170.125;1398
170.188;1396
170.250;1418
170.313;1440
170.375;1425
170.438;1442
170.500;1477
170.563;1496
170.625;1518
170.688;1489
170.750;1481
170.813;1457
170.875;1452
170.938;1394
171.000;1376
171.063;1352
171.125;1252
171.188;1250
171.250;1247
171.313;1250
171.375;1254
171.438;1252
171.500;1262
171.563;1286
171.625;1306
171.688;1386
171.750;1618
171.813;1589
171.875;1765
171.938;1982
172.000;2099
172.063;1831
172.125;1474
172.188;1350
172.250;1257
172.313;1330
172.375;1284
172.438;1325
172.500;1328
172.563;1269
172.625;1630
172.688;1262
172.750;1323
172.813;1447
172.875;1459
172.938;1401
173.000;1264
173.063;1220
173.125;1352
173.188;1381
173.250;1311
173.313;1337
173.375;1447
173.438;1469
173.500;1494
173.563;1520
173.625;1508
173.688;1408
173.750;1340
173.813;1538
173.875;1513
173.938;1423
174.000;1386
174.063;1469
174.125;1462
174.188;1525
174.250;1496
174.313;1386
174.375;1335
174.438;1323
174.500;1499
174.563;1506
174.625;1591
174.688;1503
174.750;1464
174.813;1574
174.875;1701
174.938;1733
175.000;1921
175.063;2163
175.125;2324
175.188;2346
175.250;2348
175.313;2353
175.375;2351
175.438;2338
175.500;2214
175.563;1987
175.625;1765
175.688;1574
175.750;1486
175.813;1477
175.875;1520
175.938;1562
176.000;1520
176.063;1398
176.125;1357
176.188;1323
176.250;1569
176.313;1535
176.375;1464
176.438;1457
176.500;1516
176.563;1569
176.625;1782
176.688;1701
176.750;1423
176.813;1406
176.875;1528
176.938;1564
177.000;1523
177.063;1462
177.125;1486
177.188;1462
177.250;1423
177.313;1520
177.375;1560
177.438;1486
177.500;1513
177.563;1403
177.625;1506
177.688;1520
177.750;1513
177.813;1391
177.875;1340
177.938;1806
178.000;1828
178.063;1591
178.125;1389
178.188;1345
178.250;1433
178.313;1423
178.375;1481
178.438;1591
178.500;1530
178.563;1328
178.625;1455
178.688;1423
178.750;1396
178.813;1547
178.875;1311
178.938;1384
179.000;1413
179.063;1530
179.125;1647
179.188;1835
179.250;1892
179.313;1911
179.375;1838
179.438;1779
179.500;1701
179.563;1621
179.625;1787
179.688;1640
179.750;1726
179.813;1645
179.875;1604
179.938;1533
180.000;1557
180.063;1545
180.125;1535
180.188;1520
180.250;1464
180.313;1491
180.375;1550
180.438;1679
180.500;1882
180.563;2128
180.625;2312
180.688;2348
180.750;2351
180.813;2351
180.875;2343
180.938;2331
181.000;2182
181.063;1962
181.125;1716
181.188;1474
181.250;1367
181.313;1367
181.375;1391
181.438;1394
181.500;1423
181.563;1411
181.625;1403
181.688;1459
181.750;1567
181.813;1604
181.875;1513
181.938;1450
182.000;1457
182.063;1455
182.125;1733
182.188;1601
182.250;1423
182.313;1420
182.375;1420
182.438;1474
182.500;1452
182.563;1430
182.625;1425
182.688;1347
182.750;1318
182.813;1293
182.875;1325
182.938;1306
183.000;1296
183.063;1323
183.125;1430
183.188;1352
183.250;1315
183.313;1284
183.375;1386
183.438;1638
183.500;1801
183.563;1562
183.625;1538
183.688;1513
183.750;1442
183.813;1435
183.875;1396
183.938;1396
184.000;1330
184.063;1306
184.125;1279
184.188;1276
184.250;1281
184.313;1267
184.375;1289
184.438;1308
184.500;1318
184.563;1357
184.625;1469
184.688;1669
184.750;1718
184.813;1694
184.875;1662
184.938;1601
185.000;1608
185.063;1525
185.125;1376
185.188;1286
185.250;1276
185.313;1569
185.375;1210
185.438;1308
185.500;1179
185.563;1142
185.625;1240
185.688;1142
185.750;1152
185.813;1538
185.875;1782
185.938;2055
186.000;2128
186.063;1977
186.125;1464
186.188;1267
186.250;1166
186.313;1203
186.375;1206
186.438;1164
186.500;1181
186.563;1188
186.625;1574
186.688;1301
186.750;1164
186.813;1428
186.875;1267
186.938;1218
187.000;1186
187.063;1169
187.125;1206
187.188;1215
187.250;1206
187.313;1252
187.375;1313
187.438;1315
187.500;1257
187.563;1276
187.625;1376
187.688;1342
187.750;1267
187.813;1276
187.875;1281
187.938;1296
188.000;1376
188.063;1391
188.125;1364
188.188;1340
188.250;1325
188.313;1323
188.375;1286
188.438;1262
188.500;1240
188.563;1242
188.625;1499
188.688;1486
188.750;1396
188.813;1450
188.875;1572
188.938;1691
189.000;1884
189.063;2124
189.125;2307
189.188;2351
189.250;2348
189.313;2355
189.375;2351
189.438;2343
189.500;2246
189.563;2041
189.625;1796
189.688;1538
189.750;1308
189.813;1306
189.875;1269
189.938;1269
190.000;1459
190.063;1301
190.125;1279
190.188;1264
190.250;1323
190.313;1318
190.375;1342
190.438;1411
190.500;1394
190.563;1379
190.625;1794
190.688;1726
190.750;1323
190.813;1374
190.875;1381
190.938;1494
191.000;1296
191.063;1311
191.125;1457
191.188;1423
191.250;1325
191.313;1257
191.375;1452
191.438;1477
191.500;1503
191.563;1396
191.625;1337
191.688;1342
191.750;1523
191.813;1337
191.875;1269
191.938;1682
192.000;1909
192.063;1677
192.125;1254
192.188;1271
192.250;1325
192.313;1252
192.375;1286
192.438;1450
192.500;1503
192.563;1306
192.625;1350
192.688;1247
192.750;1259
192.813;1542
192.875;1354
192.938;1291
193.000;1279
193.063;1396
193.125;1596
193.188;1804
193.250;1892
193.313;1853
193.375;1889
193.438;1813
193.500;1691
193.563;1491
193.625;1511
193.688;1481
193.750;1511
193.813;1494
193.875;1467
193.938;1428
194.000;1418
194.063;1394
194.125;1420
194.188;1477
194.250;1572
194.313;1745
194.375;1708
194.438;1745
194.500;1884
194.563;2045
194.625;2299
194.688;2343
194.750;2351
194.813;2351
194.875;2346
194.938;2326
195.000;2175
195.063;2009
195.125;1979
195.188;1972
195.250;1950
195.313;1911
195.375;1718
195.438;1508
195.500;1437
195.563;1413
195.625;1391
195.688;1379
195.750;1362
195.813;1394
195.875;1384
195.938;1372
196.000;1381
196.063;1396
196.125;1630
196.188;1618
196.250;1518
196.313;1479
196.375;1401
196.438;1362
196.500;1357
196.563;1367
196.625;1345
196.688;1335
196.750;1330
196.813;1308
196.875;1293
196.938;1267
197.000;1245
197.063;1259
197.125;1279
197.188;1306
197.250;1303
197.313;1325
197.375;1330
197.438;1398
197.500;1718
197.563;1601
197.625;1525
197.688;1445
197.750;1276
197.813;1259
197.875;1308
197.938;1274
198.000;1269
198.063;1262
198.125;1313
198.188;1264
198.250;1330
198.313;1359
198.375;1411
198.438;1437
198.500;1496
198.563;1435
198.625;1437
198.688;1584
198.750;1748
198.813;1767
198.875;1804
198.938;1801
199.000;1713
199.063;1582
199.125;1560
199.188;1560
199.250;1540
199.313;1501
199.375;1489
199.438;1447
199.500;1496
199.563;1486
199.625;1481
199.688;1462
199.750;1491
199.813;1535
199.875;1755
199.938;1875
200.000;1926
200.063;1892
200.125;1870
200.188;1816
200.250;1623
200.313;1557
200.375;1511
200.438;1562
200.500;1804
200.563;1901
200.625;1960
200.688;1921
200.750;1887
200.813;1840
200.875;1645
200.938;1567
201.000;1533
201.063;1555
201.125;1518
201.188;1545
201.250;1535
201.313;1545
201.375;1518
201.438;1550
201.500;1557
201.563;1560
201.625;1552
201.688;1550
201.750;1572
201.813;1545
201.875;1523
201.938;1542
202.000;1540
202.063;1533
202.125;1520
202.188;1540
202.250;1550
202.313;1545
202.375;1525
202.438;1538
202.500;1520
202.563;1494
202.625;1486
202.688;1501
202.750;1511
202.813;1484
202.875;1472
202.938;1491
203.000;1499
203.063;1472
203.125;1467
203.188;1472
203.250;1496
203.313;1518
203.375;1535
203.438;1564
203.500;1528
203.563;1513
203.625;1513
203.688;1467
203.750;1472
203.813;1445
203.875;1457
203.938;1462
204.000;1474
204.063;1455
204.125;1450
204.188;1459
204.250;1455
204.313;1511
204.375;1533
204.438;1596
204.500;1584
204.563;1528
204.625;1601
204.688;1547
204.750;1616
204.813;1584
204.875;1572
204.938;1562
205.000;1511
205.063;1477
205.125;1462
205.188;1457
205.250;1433
205.313;1435
205.375;1435
205.438;1440
205.500;1423
205.563;1428
205.625;1450
205.688;1450
205.750;1428
205.813;1428
205.875;1437
205.938;1447
206.000;1435
206.063;1445
206.125;1433
206.188;1437
206.250;1418
206.313;1433
206.375;1435
206.438;1452
206.500;1416
206.563;1420
206.625;1430
206.688;1430
206.750;1413
206.813;1425
206.875;1442
206.938;1445
207.000;1425
207.063;1435
207.125;1440
207.188;1440
207.250;1406
207.313;1437
207.375;1435
207.438;1418
207.500;1411
207.563;1435
207.625;1435
207.688;1450
207.750;1433
207.813;1459
207.875;1499
207.938;1569
208.000;1582
208.063;1591
208.125;1547
208.188;1523
208.250;1459
208.313;1464
208.375;1464
208.438;1437
208.500;1435
208.563;1455
208.625;1450
208.688;1440
208.750;1440
208.813;1464
208.875;1501
208.938;1665
209.000;1931
209.063;2099
209.125;2150
209.188;2126
209.250;2087
209.313;2070
209.375;1875
209.438;1645
209.500;1486
209.563;1452
209.625;1433
209.688;1433
209.750;1435
209.813;1457
209.875;1455
209.938;1450
210.000;1462
210.063;1464
210.125;1462
210.188;1467
210.250;1489
210.313;1479
210.375;1484
210.438;1462
210.500;1459
210.563;1459
210.625;1450
210.688;1459
210.750;1457
210.813;1484
210.875;1437
210.938;1452
211.000;1452
211.063;1486
211.125;1447
211.188;1472
211.250;1528
211.313;1520
211.375;1486
211.438;1491
211.500;1486
211.563;1467
211.625;1452
211.688;1467
211.750;1484
211.813;1479
211.875;1452
211.938;1481
212.000;1491
212.063;1491
212.125;1464
212.188;1496
212.250;1494
212.313;1481
212.375;1477
212.438;1496
212.500;1501
212.563;1479
212.625;1486
212.688;1489
212.750;1501
212.813;1491
212.875;1486
212.938;1489
213.000;1511
213.063;1491
213.125;1523
213.188;1525
213.250;1540
213.313;1506
213.375;1499
213.438;1506
213.500;1496
213.563;1494
213.625;1501
213.688;1496
213.750;1506
213.813;1477
213.875;1503
213.938;1486
214.000;1499
214.063;1464
214.125;1489
214.188;1486
214.250;1496
214.313;1481
214.375;1491
214.438;1562
214.500;1706
214.563;1879
214.625;1928
214.688;1923
214.750;1882
214.813;1872
214.875;1679
214.938;1582
215.000;1560
215.063;1538
215.125;1528
215.188;1506
215.250;1479
215.313;1452
215.375;1472
215.438;1472
215.500;1455
215.563;1459
215.625;1457
215.688;1467
215.750;1425
215.813;1450
215.875;1445
215.938;1479
216.000;1467
216.063;1474
216.125;1472
216.188;1462
216.250;1433
216.313;1433
216.375;1440
216.438;1435
216.500;1435
216.563;1428
216.625;1440
216.688;1433
216.750;1433
216.813;1442
216.875;1428
216.938;1437
217.000;1420
217.063;1430
217.125;1413
217.188;1425
217.250;1420
217.313;1450
217.375;1474
217.438;1472
217.500;1440
217.563;1420
217.625;1420
217.688;1391
217.750;1406
217.813;1398
217.875;1406
217.938;1416
218.000;1403
218.063;1418
218.125;1459
218.188;1464
218.250;1472
218.313;1450
218.375;1420
218.438;1403
218.500;1423
218.563;1416
218.625;1442
218.688;1450
218.750;1462
218.813;1472
218.875;1494
218.938;1496
219.000;1464
219.063;1472
219.125;1462
219.188;1445
219.250;1442
219.313;1442
219.375;1442
219.438;1447
219.500;1450
219.563;1472
219.625;1457
219.688;1481
219.750;1479
219.813;1513
219.875;1655
219.938;1757
220.000;1821
220.063;1796
220.125;1757
220.188;1721
220.250;1569
220.313;1516
220.375;1520
220.438;1528
220.500;1562
220.563;1577
220.625;1569
220.688;1555
220.750;1560
220.813;1555
220.875;1545
220.938;1557
221.000;1564
221.063;1579
221.125;1577
221.188;1589
221.250;1569
221.313;1572
221.375;1586
221.438;1579
221.500;1596
221.563;1584
221.625;1604
221.688;1594
221.750;1601
221.813;1604
221.875;1611
221.938;1616
222.000;1613
222.063;1616
222.125;1628
222.188;1643
222.250;1640
222.313;1647
222.375;1647
222.438;1662
222.500;1638
222.563;1655
222.625;1640
222.688;1665
222.750;1657
222.813;1645
222.875;1662
222.938;1660
223.000;1657
223.063;1650
223.125;1672
223.188;1672
223.250;1689
223.313;1682
223.375;1691
223.438;1691
223.500;1682
223.563;1677
223.625;1665
223.688;1669
223.750;1669
223.813;1665
223.875;1669
223.938;1674
224.000;1694
224.063;1740
224.125;1938
224.188;2045
224.250;2111
224.313;2065
224.375;2031
224.438;1994
224.500;1801
224.563;1713
224.625;1694
224.688;1689
224.750;1674
224.813;1689
224.875;1679
224.938;1694
225.000;1682
225.063;1669
225.125;1694
225.188;1684
225.250;1694
225.313;1682
225.375;1696
225.438;1677
225.500;1682
225.563;1679
225.625;1677
225.688;1684
225.750;1672
225.813;1672
225.875;1665
225.938;1677
226.000;1665
226.063;1684
226.125;1677
226.188;1657
226.250;1674
226.313;1672
226.375;1682
226.438;1679
226.500;1687
226.563;1679
226.625;1689
226.688;1669
226.750;1677
226.813;1669
226.875;1665
226.938;1667
227.000;1655
227.063;1657
227.125;1650
227.188;1638
227.250;1643
227.313;1638
227.375;1633
227.438;1630
227.500;1635
227.563;1625
227.625;1621
227.688;1601
227.750;1608
227.813;1633
227.875;1647
227.938;1633
228.000;1618
228.063;1621
228.125;1621
228.188;1611
228.250;1604
228.313;1613
228.375;1611
228.438;1579
228.500;1594
228.563;1579
228.625;1594
228.688;1582
228.750;1589
228.813;1584
228.875;1579
228.938;1562
229.000;1572
229.063;1591
229.125;1552
229.188;1560
229.250;1545
229.313;1555
229.375;1530
229.438;1542
229.500;1552
229.563;1633
229.625;1796
229.688;1882
229.750;1972
229.813;1916
229.875;1877
229.938;1823
230.000;1647
230.063;1550
230.125;1513
230.188;1503
230.250;1506
230.313;1496
230.375;1494
230.438;1496
230.500;1481
230.563;1503
230.625;1486
230.688;1481
230.750;1481
230.813;1489
230.875;1469
230.938;1459
231.000;1467
231.063;1479
231.125;1474
231.188;1469
231.250;1477
231.313;1464
231.375;1457
231.438;1464
231.500;1481
231.563;1464
231.625;1447
231.688;1467
231.750;1452
231.813;1455
231.875;1440
231.938;1442
232.000;1440
232.063;1435
232.125;1433
232.188;1428
232.250;1442
232.313;1428
232.375;1425
232.438;1437
232.500;1445
232.563;1447
232.625;1435
232.688;1450
232.750;1442
232.813;1455
232.875;1442
232.938;1455
233.000;1467
233.063;1455
233.125;1459
233.188;1457
233.250;1462
233.313;1440
233.375;1440
233.438;1430
233.500;1445
233.563;1428
233.625;1428
233.688;1423
233.750;1435
233.813;1416
233.875;1423
233.938;1423
234.000;1413
234.063;1406
234.125;1423
234.188;1430
234.250;1430
234.313;1418
234.375;1423
234.438;1433
234.500;1450
234.563;1442
234.625;1433
234.688;1455
234.750;1520
234.813;1647
234.875;1623
234.938;1623
235.000;1599
235.063;1591
235.125;1477
235.188;1433
235.250;1416
235.313;1413
235.375;1411
235.438;1413
235.500;1403
235.563;1406
235.625;1411
235.688;1413
235.750;1406
235.813;1408
235.875;1411
235.938;1406
236.000;1398
236.063;1403
236.125;1403
236.188;1418
236.250;1394
236.313;1401
236.375;1401
236.438;1408
236.500;1398
236.563;1398
236.625;1401
236.688;1386
236.750;1398
236.813;1384
236.875;1389
236.938;1386
237.000;1381
237.063;1389
237.125;1396
237.188;1408
237.250;1413
237.313;1433
237.375;1411
237.438;1401
237.500;1359
237.563;1381
237.625;1350
237.688;1364
237.750;1354
237.813;1367
237.875;1374
237.938;1376
238.000;1408
238.063;1430
238.125;1416
238.188;1398
238.250;1401
238.313;1374
238.375;1352
238.438;1340
238.500;1354
238.563;1379
238.625;1394
238.688;1394
238.750;1450
238.813;1452
238.875;1403
238.938;1403
239.000;1345
239.063;1325
239.125;1342
239.188;1328
239.250;1340
239.313;1335
239.375;1350
239.438;1337
239.500;1342
239.563;1359
239.625;1354
239.688;1347
239.750;1357
239.813;1354
239.875;1379
239.938;1369
240.000;1372
240.063;1384
240.125;1362
240.188;1357
240.250;1376
240.313;1430
240.375;1489
240.438;1501
240.500;1499
240.563;1474
240.625;1437
240.688;1396
240.750;1372
240.813;1391
240.875;1381
240.938;1398
241.000;1391
241.063;1394
241.125;1374
241.188;1391
241.250;1381
241.313;1391
241.375;1389
241.438;1398
241.500;1396
241.563;1394
241.625;1384
241.688;1394
241.750;1398
241.813;1389
241.875;1396
241.938;1391
242.000;1416
242.063;1440
242.125;1430
242.188;1411
242.250;1406
242.313;1391
242.375;1381
242.438;1386
242.500;1376
242.563;1381
242.625;1372
242.688;1391
242.750;1369
242.813;1381
242.875;1384
242.938;1384
243.000;1401
243.063;1389
243.125;1401
243.188;1391
243.250;1391
243.313;1381
243.375;1384
243.438;1384
243.500;1406
243.563;1445
243.625;1491
243.688;1469
243.750;1464
243.813;1459
243.875;1433
243.938;1469
244.000;1503
244.063;1533
244.125;1545
244.188;1533
244.250;1489
244.313;1467
244.375;1418
244.438;1391
244.500;1384
244.563;1391
244.625;1374
244.688;1372
244.750;1364
244.813;1359
244.875;1359
244.938;1362
245.000;1342
245.063;1347
245.125;1354
245.188;1362
245.250;1364
245.313;1364
245.375;1357
245.438;1369
245.500;1372
245.563;1376
245.625;1372
245.688;1362
245.750;1389
245.813;1408
245.875;1442
245.938;1455
246.000;1435
246.063;1418
246.125;1398
246.188;1389
246.250;1408
246.313;1506
246.375;1560
246.438;1547
246.500;1503
246.563;1496
246.625;1418
246.688;1357
246.750;1362
246.813;1359
246.875;1357
246.938;1354
247.000;1362
247.063;1352
247.125;1357
247.188;1359
247.250;1357
247.313;1364
247.375;1369
247.438;1352
247.500;1364
247.563;1352
247.625;1420
247.688;1440
247.750;1520
247.813;1501
247.875;1469
247.938;1401
248.000;1428
248.063;1367
248.125;1342
248.188;1347
248.250;1347
248.313;1367
248.375;1354
248.438;1337
248.500;1350
248.563;1354
248.625;1362
248.688;1398
248.750;1455
248.813;1574
248.875;1638
248.938;1647
249.000;1604
249.063;1594
249.125;1508
249.188;1472
249.250;1455
249.313;1457
249.375;1455
249.438;1455
249.500;1440
249.563;1445
249.625;1445
249.688;1447
249.750;1452
249.813;1511
249.875;1523
249.938;1530
250.000;1530
250.063;1511
250.125;1491
250.188;1472
250.250;1459
250.313;1430
250.375;1452
250.438;1403
250.500;1408
250.563;1401
250.625;1411
250.688;1440
250.750;1425
250.813;1423
250.875;1428
250.938;1416
251.000;1398
251.063;1398
251.125;1367
251.188;1376
251.250;1391
251.313;1416
251.375;1403
251.438;1389
251.500;1389
251.563;1376
251.625;1394
251.688;1369
251.750;1391
251.813;1403
251.875;1420
251.938;1428
252.000;1428
252.063;1435
252.125;1413
252.188;1423
252.250;1396
252.313;1401
252.375;1381
252.438;1386
252.500;1374
252.563;1359
252.625;1354
252.688;1333
252.750;1337
252.813;1330
252.875;1315
252.938;1320
253.000;1315
253.063;1337
253.125;1313
253.188;1325
253.250;1323
253.313;1330
253.375;1333
253.438;1350
253.500;1362
253.563;1398
253.625;1416
253.688;1435
253.750;1423
253.813;1420
253.875;1406
253.938;1389
254.000;1401
254.063;1403
254.125;1408
254.188;1425
254.250;1386
254.313;1423
254.375;1445
254.438;1484
254.500;1437
254.563;1428
254.625;1413
254.688;1462
254.750;1481
254.813;1499
254.875;1481
254.938;1477
255.000;1401
255.063;1345
255.125;1325
255.188;1350
255.250;1372
255.313;1372
255.375;1398
255.438;1398
255.500;1420
255.563;1440
255.625;1428
255.688;1423
255.750;1381
255.813;1367
255.875;1333
255.938;1342
256.000;1330
256.063;1335
256.125;1328
256.188;1325
256.250;1325
256.313;1323
256.375;1337
256.438;1328
256.500;1340
256.563;1359
256.625;1372
256.688;1352
256.750;1357
256.813;1354
256.875;1394
256.938;1406
257.000;1413
257.063;1411
257.125;1423
257.188;1406
257.250;1381
257.313;1374
257.375;1337
257.438;1337
257.500;1374
257.563;1418
257.625;1445
257.688;1450
257.750;1433
257.813;1445
257.875;1430
257.938;1435
258.000;1396
258.063;1386
258.125;1350
258.188;1352
258.250;1354
258.313;1367
258.375;1379
258.438;1413
258.500;1401
258.563;1413
258.625;1435
258.688;1428
258.750;1398
258.813;1386
258.875;1364
258.938;1337
259.000;1337
259.063;1369
259.125;1401
259.188;1420
259.250;1503
259.313;1477
259.375;1499
259.438;1494
259.500;1481
259.563;1398
259.625;1342
259.688;1325
259.750;1313
259.813;1325
259.875;1357
259.938;1420
260.000;1450
260.063;1450
260.125;1442
260.188;1425
260.250;1396
260.313;1398
260.375;1396
260.438;1420
260.500;1423
260.563;1442
260.625;1437
260.688;1435
260.750;1398
260.813;1374
260.875;1345
260.938;1318
261.000;1308
261.063;1345
261.125;1379
261.188;1396
261.250;1391
261.313;1389
261.375;1391
261.438;1384
261.500;1359
261.563;1398
261.625;1420
261.688;1447
261.750;1433
261.813;1418
261.875;1394
261.938;1403
262.000;1416
262.063;1423
262.125;1413
262.188;1440
262.250;1450
262.313;1452
262.375;1455
262.438;1423
262.500;1386
262.563;1359
262.625;1325
262.688;1320
262.750;1335
262.813;1350
262.875;1354
262.938;1389
263.000;1386
263.063;1345
263.125;1347
263.188;1335
263.250;1362
263.313;1396
263.375;1364
263.438;1372
263.500;1376
263.563;1401
263.625;1396
263.688;1408
263.750;1403
263.813;1379
263.875;1362
263.938;1367
264.000;1384
264.063;1374
264.125;1335
264.188;1328
264.250;1308
264.313;1320
264.375;1330
264.438;1345
264.500;1318
264.563;1313
264.625;1289
264.688;1296
264.750;1308
264.813;1337
264.875;1357
264.938;1335
265.000;1350
265.063;1337
265.125;1350
265.188;1374
265.250;1335
265.313;1354
265.375;1318
265.438;1335
265.500;1320
265.563;1333
265.625;1325
265.688;1340
265.750;1333
265.813;1352
265.875;1350
265.938;1347
266.000;1364
266.063;1374
266.125;1362
266.188;1347
266.250;1357
266.313;1323
266.375;1333
266.438;1315
266.500;1298
266.563;1311
266.625;1311
266.688;1347
266.750;1367
266.813;1384
266.875;1381
266.938;1372
267.000;1374
267.063;1398
267.125;1391
267.188;1394
267.250;1396
267.313;1357
267.375;1335
267.438;1303
267.500;1281
267.563;1296
267.625;1311
267.688;1340
267.750;1381
267.813;1430
267.875;1416
267.938;1386
268.000;1386
268.063;1372
268.125;1381
268.188;1394
268.250;1391
268.313;1398
268.375;1384
268.438;1374
268.500;1347
268.563;1318
268.625;1320
268.688;1396
268.750;1452
268.813;1474
268.875;1416
268.938;1408
269.000;1333
269.063;1289
269.125;1286
269.188;1276
269.250;1279
269.313;1276
269.375;1284
269.438;1264
269.500;1276
269.563;1303
269.625;1320
269.688;1352
269.750;1325
269.813;1337
269.875;1345
269.938;1347
270.000;1350
270.063;1323
270.125;1311
270.188;1291
270.250;1298
270.313;1291
270.375;1293
270.438;1303
270.500;1284
270.563;1279
270.625;1279
270.688;1281
270.750;1279
270.813;1264
270.875;1279
270.938;1289
271.000;1291
271.063;1284
271.125;1286
271.188;1276
271.250;1279
271.313;1289
271.375;1281
271.438;1296
271.500;1291
271.563;1308
271.625;1281
271.688;1293
271.750;1276
271.813;1286
271.875;1296
271.938;1308
272.000;1298
272.063;1298
272.125;1298
272.188;1289
272.250;1286
272.313;1281
272.375;1274
272.438;1271
272.500;1276
272.563;1284
272.625;1271
272.688;1279
272.750;1271
272.813;1269
272.875;1274
272.938;1284
273.000;1291
273.063;1291
273.125;1284
273.188;1303
273.250;1437
273.313;1501
273.375;1540
273.438;1501
273.500;1481
273.563;1420
273.625;1318
273.688;1284
273.750;1281
273.813;1271
273.875;1274
273.938;1267
274.000;1271
274.063;1276
274.125;1276
274.188;1315
274.250;1330
274.313;1330
274.375;1323
274.438;1325
274.500;1325
274.563;1318
274.625;1323
274.688;1323
274.750;1320
274.813;1306
274.875;1296
274.938;1284
275.000;1293
275.063;1284
275.125;1286
275.188;1276
275.250;1274
275.313;1281
275.375;1276
275.438;1296
275.500;1284
275.563;1289
275.625;1303
275.688;1301
275.750;1293
275.813;1293
275.875;1298
275.938;1298
276.000;1291
276.063;1303
276.125;1323
276.188;1308
276.250;1315
276.313;1306
276.375;1301
276.438;1296
276.500;1293
276.563;1281
276.625;1289
276.688;1279
276.750;1259
276.813;1274
276.875;1284
276.938;1279
277.000;1284
277.063;1303
277.125;1303
277.188;1298
277.250;1284
277.313;1284
277.375;1291
277.438;1301
277.500;1267
277.563;1281
277.625;1286
277.688;1276
277.750;1279
277.813;1284
277.875;1281
277.938;1291
278.000;1284
278.063;1276
278.125;1281
278.188;1276
278.250;1271
278.313;1271
278.375;1276
278.438;1274
278.500;1274
278.563;1293
278.625;1286
278.688;1289
278.750;1306
278.813;1330
278.875;1357
278.938;1367
279.000;1347
279.063;1337
279.125;1420
279.188;1381
279.250;1418
279.313;1442
279.375;1374
279.438;1367
279.500;1325
279.563;1301
279.625;1306
279.688;1298
279.750;1311
279.813;1313
279.875;1306
279.938;1318
280.000;1313
280.063;1311
280.125;1313
280.188;1308
280.250;1311
280.313;1315
280.375;1311
280.438;1298
280.500;1301
280.563;1289
280.625;1279
280.688;1267
280.750;1279
280.813;1291
280.875;1279
280.938;1276
281.000;1284
281.063;1279
281.125;1279
281.188;1293
281.250;1274
281.313;1281
281.375;1284
281.438;1298
281.500;1289
281.563;1306
281.625;1293
281.688;1291
281.750;1281
281.813;1293
281.875;1291
281.938;1296
282.000;1286
282.063;1281
282.125;1284
282.188;1274
282.250;1279
282.313;1279
282.375;1279
282.438;1276
282.500;1291
282.563;1291
282.625;1296
282.688;1323
282.750;1308
282.813;1308
282.875;1303
282.938;1298
283.000;1306
283.063;1284
283.125;1281
283.188;1286
283.250;1276
283.313;1293
283.375;1284
283.438;1286
283.500;1291
283.563;1298
283.625;1306
283.688;1296
283.750;1293
283.813;1303
283.875;1301
283.938;1323
284.000;1335
284.063;1323
284.125;1328
284.188;1325
284.250;1337
284.313;1323
284.375;1306
284.438;1298
284.500;1286
284.563;1281
284.625;1291
284.688;1320
284.750;1320
284.813;1311
284.875;1313
284.938;1306
285.000;1303
285.063;1279
285.125;1286
285.188;1296
285.250;1284
285.313;1286
285.375;1284
285.438;1269
285.500;1269
285.563;1262
285.625;1259
285.688;1264
285.750;1262
285.813;1269
285.875;1284
285.938;1289
286.000;1289
286.063;1279
286.125;1279
286.188;1271
286.250;1267
286.313;1250
286.375;1257
286.438;1257
286.500;1252
286.563;1259
286.625;1254
286.688;1267
286.750;1264
286.813;1274
286.875;1262
286.938;1262
287.000;1267
287.063;1284
287.125;1276
287.188;1271
287.250;1281
287.313;1276
287.375;1274
287.438;1264
287.500;1293
287.563;1293
287.625;1281
287.688;1281
287.750;1281
287.813;1286
287.875;1313
287.938;1372
288.000;1398
288.063;1369
288.125;1352
288.188;1337
288.250;1296
288.313;1279
288.375;1286
288.438;1284
288.500;1284
288.563;1308
288.625;1318
288.688;1315
288.750;1298
288.813;1303
288.875;1274
288.938;1264
289.000;1267
289.063;1264
289.125;1264
289.188;1264
289.250;1286
289.313;1269
289.375;1279
289.438;1303
289.500;1330
289.563;1301
289.625;1281
289.688;1289
289.750;1289
289.813;1286
289.875;1293
289.938;1269
290.000;1262
290.063;1269
290.125;1281
290.188;1293
290.250;1271
290.313;1264
290.375;1269
290.438;1259
290.500;1250
290.563;1257
290.625;1257
290.688;1264
290.750;1267
290.813;1264
290.875;1259
290.938;1257
291.000;1257
291.063;1267
291.125;1296
291.188;1325
291.250;1306
291.313;1291
291.375;1289
291.438;1259
291.500;1250
291.563;1252
291.625;1254
291.688;1269
291.750;1289
291.813;1289
291.875;1281
291.938;1276
292.000;1276
292.063;1259
292.125;1257
292.188;1264
292.250;1264
292.313;1254
292.375;1257
292.438;1252
292.500;1252
292.563;1262
292.625;1252
292.688;1250
292.750;1269
292.813;1262
292.875;1264
292.938;1259
293.000;1262
293.063;1274
293.125;1296
293.188;1362
293.250;1406
293.313;1394
293.375;1369
293.438;1367
293.500;1328
293.563;1345
293.625;1311
293.688;1301
293.750;1269
293.813;1254
293.875;1252
293.938;1267
294.000;1257
294.063;1264
294.125;1262
294.188;1257
294.250;1264
294.313;1264
294.375;1267
294.438;1264
294.500;1293
294.563;1296
294.625;1279
294.688;1279
294.750;1279
294.813;1269
294.875;1269
294.938;1267
295.000;1271
295.063;1279
295.125;1269
295.188;1286
295.250;1281
295.313;1308
295.375;1311
295.438;1298
295.500;1303
295.563;1315
295.625;1330
295.688;1306
295.750;1281
295.813;1284
295.875;1284
295.938;1286
296.000;1269
296.063;1269
296.125;1281
296.188;1271
296.250;1281
296.313;1274
296.375;1286
296.438;1279
296.500;1279
296.563;1279
296.625;1279
296.688;1286
296.750;1286
296.813;1289
296.875;1315
296.938;1328
297.000;1345
297.063;1340
297.125;1313
297.188;1320
297.250;1301
297.313;1298
297.375;1296
297.438;1284
297.500;1276
297.563;1274
297.625;1276
297.688;1279
297.750;1284
297.813;1289
297.875;1291
297.938;1306
298.000;1298
298.063;1291
298.125;1296
298.188;1303
298.250;1296
298.313;1286
298.375;1296
298.438;1301
298.500;1291
298.563;1298
298.625;1308
298.688;1323
298.750;1330
298.813;1328
298.875;1323
298.938;1308
299.000;1333
299.063;1354
299.125;1386
299.188;1386
299.250;1357
299.313;1320
299.375;1289
299.438;1291
299.500;1284
299.563;1279
299.625;1286
299.688;1293
299.750;1274
299.813;1289
299.875;1281
299.938;1308
300.000;1345
300.063;1337
300.125;1328
300.188;1315
300.250;1306
300.313;1289
300.375;1296
300.438;1296
300.500;1281
300.563;1281
300.625;1281
300.688;1281
300.750;1286
300.813;1284
300.875;1296
300.938;1289
301.000;1289
301.063;1303
301.125;1293
301.188;1286
301.250;1276
301.313;1269
301.375;1286
301.438;1267
301.500;1274
301.563;1264
301.625;1264
301.688;1264
301.750;1259
301.813;1254
301.875;1257
301.938;1252
302.000;1247
302.063;1264
302.125;1262
302.188;1259
302.250;1269
302.313;1279
302.375;1284
302.438;1267
302.500;1279
302.563;1286
302.625;1286
302.688;1276
302.750;1276
302.813;1289
302.875;1293
302.938;1318
303.000;1308
303.063;1308
303.125;1303
303.188;1296
303.250;1279
303.313;1264
303.375;1271
303.438;1289
303.500;1276
303.563;1276
303.625;1279
303.688;1274
303.750;1276
303.813;1276
303.875;1271
303.938;1269
304.000;1279
304.063;1276
304.125;1286
304.188;1284
304.250;1284
304.313;1267
304.375;1267
304.438;1254
304.500;1276
304.563;1296
304.625;1301
304.688;1303
304.750;1291
304.813;1281
304.875;1279
304.938;1274
305.000;1279
305.063;1262
305.125;1245
305.188;1259
305.250;1252
305.313;1257
305.375;1254
305.438;1267
305.500;1267
305.563;1274
305.625;1279
305.688;1281
305.750;1293
305.813;1311
305.875;1301
305.938;1301
306.000;1298
306.063;1306
306.125;1298
306.188;1296
306.250;1303
306.313;1301
306.375;1279
306.438;1269
306.500;1276
306.563;1279
306.625;1274
306.688;1264
306.750;1254
306.813;1264
306.875;1271
306.938;1269
307.000;1269
307.063;1271
307.125;1271
307.188;1262
307.250;1279
307.313;1264
307.375;1279
307.438;1269
307.500;1264
307.563;1271
307.625;1262
307.688;1254
307.750;1259
307.813;1269
307.875;1267
307.938;1267
308.000;1274
308.063;1279
308.125;1281
308.188;1274
308.250;1262
308.313;1274
308.375;1264
308.438;1284
308.500;1289
308.563;1286
308.625;1271
308.688;1269
308.750;1267
308.813;1267
308.875;1262
308.938;1271
309.000;1264
309.063;1269
309.125;1267
309.188;1259
309.250;1269
309.313;1276
309.375;1276
309.438;1252
309.500;1262
309.563;1250
309.625;1250
309.688;1262
309.750;1237
309.813;1252
309.875;1267
309.938;1252
310.000;1267
310.063;1281
310.125;1259
310.188;1245
310.250;1250
310.313;1262
310.375;1250
310.438;1257
310.500;1247
310.563;1250
310.625;1269
310.688;1257
310.750;1257
310.813;1259
310.875;1257
310.938;1264
311.000;1252
311.063;1254
311.125;1254
311.188;1252
311.250;1257
311.313;1254
311.375;1279
311.438;1271
311.500;1274
311.563;1281
311.625;1276
311.688;1279
311.750;1281
311.813;1274
311.875;1271
311.938;1281
312.000;1308
312.063;1303
312.125;1281
312.188;1284
312.250;1259
312.313;1257
312.375;1269
312.438;1276
312.500;1264
312.563;1279
312.625;1276
312.688;1267
312.750;1259
312.813;1252
312.875;1252
312.938;1252
313.000;1289
313.063;1340
313.125;1372
313.188;1369
313.250;1342
313.313;1315
313.375;1281
313.438;1269
313.500;1262
313.563;1281
313.625;1291
313.688;1276
313.750;1267
313.813;1264
313.875;1269
313.938;1267
314.000;1276
314.063;1271
314.125;1267
314.188;1259
314.250;1264
314.313;1269
314.375;1267
314.438;1267
314.500;1281
314.563;1264
314.625;1271
314.688;1276
314.750;1271
314.813;1289
314.875;1267
314.938;1279
315.000;1267
315.063;1250
315.125;1264
315.188;1264
315.250;1259
315.313;1259
315.375;1267
315.438;1267
315.500;1262
315.563;1267
315.625;1279
315.688;1271
315.750;1269
315.813;1267
315.875;1254
315.938;1257
316.000;1252
316.063;1250
316.125;1259
316.188;1269
316.250;1267
316.313;1276
316.375;1274
316.438;1284
316.500;1271
316.563;1289
316.625;1281
316.688;1267
316.750;1267
316.813;1259
316.875;1252
316.938;1252
317.000;1252
317.063;1250
317.125;1264
317.188;1257
317.250;1257
317.313;1250
317.375;1254
317.438;1250
317.500;1250
317.563;1257
317.625;1245
317.688;1252
317.750;1245
317.813;1247
317.875;1240
317.938;1250
318.000;1240
318.063;1245
318.125;1257
318.188;1242
318.250;1250
318.313;1252
318.375;1245
318.438;1245
318.500;1259
318.563;1267
318.625;1279
318.688;1267
318.750;1264
318.813;1264
318.875;1315
318.938;1328
319.000;1362
319.063;1379
319.125;1352
319.188;1335
319.250;1293
319.313;1264
319.375;1281
319.438;1276
319.500;1279
319.563;1274
319.625;1269
319.688;1271
319.750;1250
319.813;1257
319.875;1264
319.938;1257
320.000;1276
320.063;1279
320.125;1289
320.188;1281
320.250;1269
320.313;1271
320.375;1257
320.438;1267
320.500;1259
320.563;1271
320.625;1269
320.688;1284
320.750;1296
320.813;1281
320.875;1279
320.938;1281
321.000;1267
321.063;1279
321.125;1269
321.188;1264
321.250;1267
321.313;1262
321.375;1257
321.438;1257
321.500;1252
321.563;1264
321.625;1247
321.688;1250
321.750;1262
321.813;1250
321.875;1264
321.938;1281
322.000;1286
322.063;1262
322.125;1259
322.188;1269
322.250;1269
322.313;1267
322.375;1267
322.438;1274
322.500;1289
322.563;1281
322.625;1271
322.688;1269
322.750;1276
322.813;1264
322.875;1257
322.938;1259
323.000;1267
323.063;1254
323.125;1250
323.188;1271
323.250;1264
323.313;1262
323.375;1281
323.438;1264
323.500;1262
323.563;1276
323.625;1247
323.688;1250
323.750;1247
323.813;1250
323.875;1271
323.938;1289
324.000;1318
324.063;1308
324.125;1303
324.188;1279
324.250;1274
324.313;1271
324.375;1269
324.438;1279
324.500;1276
324.563;1298
324.625;1271
324.688;1291
324.750;1279
324.813;1293
324.875;1274
324.938;1276
325.000;1267
325.063;1254
325.125;1262
325.188;1259
325.250;1259
325.313;1254
325.375;1252
325.438;1250
325.500;1252
325.563;1250
325.625;1267
325.688;1271
325.750;1271
325.813;1262
325.875;1262
325.938;1247
326.000;1247
326.063;1240
326.125;1240
326.188;1247
326.250;1245
326.313;1235
326.375;1240
326.438;1237
326.500;1254
326.563;1250
326.625;1250
326.688;1257
326.750;1242
326.813;1257
326.875;1245
326.938;1264
327.000;1245
327.063;1250
327.125;1259
327.188;1259
327.250;1264
327.313;1279
327.375;1274
327.438;1262
327.500;1259
327.563;1269
327.625;1264
327.688;1276
327.750;1276
327.813;1274
327.875;1284
327.938;1284
328.000;1289
328.063;1296
328.125;1284
328.188;1279
328.250;1296
328.313;1279
328.375;1284
328.438;1274
328.500;1267
328.563;1264
328.625;1269
328.688;1250
328.750;1257
328.813;1252
328.875;1254
328.938;1252
329.000;1252
329.063;1257
329.125;1250
329.188;1259
329.250;1269
329.313;1267
329.375;1274
329.438;1279
329.500;1276
329.563;1286
329.625;1291
329.688;1279
329.750;1289
329.813;1276
329.875;1269
329.938;1279
330.000;1274
330.063;1250
330.125;1267
330.188;1271
330.250;1259
330.313;1262
330.375;1259
330.438;1257
330.500;1257
330.563;1267
330.625;1267
330.688;1267
330.750;1289
330.813;1264
330.875;1262
330.938;1264
331.000;1259
331.063;1262
331.125;1279
331.188;1269
331.250;1276
331.313;1289
331.375;1286
331.438;1289
331.500;1298
331.563;1286
331.625;1289
331.688;1296
331.750;1303
331.813;1291
331.875;1284
331.938;1281
332.000;1279
332.063;1262
332.125;1269
332.188;1267
332.250;1247
332.313;1245
332.375;1252
332.438;1264
332.500;1245
332.563;1250
332.625;1254
332.688;1250
332.750;1257
332.813;1262
332.875;1286
332.938;1352
333.000;1394
333.063;1396
333.125;1350
333.188;1354
333.250;1296
333.313;1264
333.375;1262
333.438;1250
333.500;1257
333.563;1257
333.625;1245
333.688;1245
333.750;1232
333.813;1252
333.875;1242
333.938;1237
334.000;1228
334.063;1247
334.125;1242
334.188;1235
334.250;1230
334.313;1247
334.375;1250
334.438;1247
334.500;1235
334.563;1245
334.625;1245
334.688;1240
334.750;1252
334.813;1267
334.875;1259
334.938;1259
335.000;1269
335.063;1267
335.125;1274
335.188;1274
335.250;1291
335.313;1284
335.375;1298
335.438;1293
335.500;1296
335.563;1286
335.625;1267
335.688;1271
335.750;1284
335.813;1284
335.875;1357
335.938;1413
336.000;1462
336.063;1408
336.125;1386
336.188;1340
336.250;1274
336.313;1257
336.375;1247
336.438;1262
336.500;1264
336.563;1269
336.625;1276
336.688;1286
336.750;1279
336.813;1271
336.875;1276
336.938;1291
337.000;1286
337.063;1279
337.125;1284
337.188;1279
337.250;1274
337.313;1279
337.375;1267
337.438;1262
337.500;1262
337.563;1262
337.625;1250
337.688;1259
337.750;1259
337.813;1271
337.875;1250
337.938;1237
338.000;1252
338.063;1252
338.125;1247
338.188;1252
338.250;1247
338.313;1252
338.375;1247
338.438;1269
338.500;1293
338.563;1286
338.625;1279
338.688;1286
338.750;1259
338.813;1252
338.875;1264
338.938;1257
339.000;1257
339.063;1259
339.125;1252
339.188;1247
339.250;1247
339.313;1250
339.375;1257
339.438;1247
339.500;1247
339.563;1242
339.625;1240
339.688;1250
339.750;1252
339.813;1259
339.875;1254
339.938;1274
340.000;1267
340.063;1264
340.125;1257
340.188;1269
340.250;1250
340.313;1262
340.375;1252
340.438;1250
340.500;1254
340.563;1264
340.625;1264
340.688;1262
340.750;1264
340.813;1264
340.875;1269
340.938;1259
341.000;1262
341.063;1259
341.125;1254
341.188;1247
341.250;1250
341.313;1245
341.375;1245
341.438;1242
341.500;1242
341.563;1228
341.625;1242
341.688;1235
341.750;1247
341.813;1252
341.875;1264
341.938;1257
342.000;1257
342.063;1250
342.125;1235
342.188;1240
342.250;1245
342.313;1254
342.375;1242
342.438;1252
342.500;1242
342.563;1252
342.625;1259
342.688;1250
342.750;1252
342.813;1250
342.875;1257
342.938;1257
343.000;1267
343.063;1271
343.125;1245
343.188;1257
343.250;1250
343.313;1264
343.375;1250
343.438;1254
343.500;1259
343.563;1257
343.625;1252
343.688;1252
343.750;1250
343.813;1252
343.875;1259
343.938;1247
344.000;1264
344.063;1250
344.125;1247
344.188;1257
344.250;1257
344.313;1242
344.375;1257
344.438;1250
344.500;1271
344.563;1298
344.625;1320
344.688;1296
344.750;1276
344.813;1257
344.875;1250
344.938;1237
345.000;1247
345.063;1237
345.125;1250
345.188;1257
345.250;1267
345.313;1254
345.375;1262
345.438;1264
345.500;1257
345.563;1247
345.625;1254
345.688;1242
345.750;1247
345.813;1247
345.875;1242
345.938;1247
346.000;1250
346.063;1254
346.125;1247
346.188;1252
346.250;1250
346.313;1245
346.375;1245
346.438;1252
346.500;1250
346.563;1254
346.625;1257
346.688;1254
346.750;1250
346.813;1250
346.875;1257
346.938;1254
347.000;1250
347.063;1254
347.125;1259
347.188;1276
347.250;1271
347.313;1254
347.375;1264
347.438;1264
347.500;1262
347.563;1271
347.625;1252
347.688;1259
347.750;1245
347.813;1254
347.875;1250
347.938;1247
348.000;1247
348.063;1259
348.125;1254
348.188;1247
348.250;1245
348.313;1257
348.375;1264
348.438;1262
348.500;1259
348.563;1262
348.625;1257
348.688;1264
348.750;1286
348.813;1269
348.875;1267
348.938;1250
349.000;1259
349.063;1250
349.125;1254
349.188;1254
349.250;1257
349.313;1242
349.375;1240
349.438;1237
349.500;1232
349.563;1237
349.625;1237
349.688;1245
349.750;1250
349.813;1237
349.875;1240
349.938;1271
350.000;1306
350.063;1284
350.125;1286
350.188;1286
350.250;1250
350.313;1264
350.375;1267
350.438;1259
350.500;1271
350.563;1254
350.625;1259
350.688;1250
350.750;1237
350.813;1250
350.875;1252
350.938;1254
351.000;1250
351.063;1267
351.125;1252
351.188;1267
351.250;1264
351.313;1254
351.375;1262
351.438;1262
351.500;1264
351.563;1333
351.625;1262
351.688;1267
351.750;1259
351.813;1252
351.875;1259
351.938;1267
352.000;1262
352.063;1264
352.125;1247
352.188;1250
352.250;1252
352.313;1242
352.375;1242
352.438;1247
352.500;1247
352.563;1252
352.625;1242
352.688;1250
352.750;1237
352.813;1240
352.875;1254
352.938;1252
353.000;1252
353.063;1254
353.125;1242
353.188;1235
353.250;1237
353.313;1232
353.375;1245
353.438;1237
353.500;1232
353.563;1237
353.625;1242
353.688;1247
353.750;1235
353.813;1245
353.875;1240
353.938;1245
354.000;1245
354.063;1240
354.125;1242
354.188;1240
354.250;1252
354.313;1252
354.375;1252
354.438;1240
354.500;1245
354.563;1252
354.625;1250
354.688;1271
354.750;1257
354.813;1250
354.875;1247
354.938;1250
355.000;1250
355.063;1259
355.125;1247
355.188;1252
355.250;1252
355.313;1245
355.375;1240
355.438;1240
355.500;1247
355.563;1254
355.625;1242
355.688;1232
355.750;1228
355.813;1242
355.875;1245
355.938;1237
356.000;1250
356.063;1254
356.125;1252
356.188;1250
356.250;1252
356.313;1252
356.375;1250
356.438;1257
356.500;1250
356.563;1250
356.625;1269
356.688;1259
356.750;1259
356.813;1257
356.875;1247
356.938;1250
357.000;1242
357.063;1247
357.125;1254
357.188;1267
357.250;1284
357.313;1296
357.375;1281
357.438;1271
357.500;1254
357.563;1257
357.625;1254
357.688;1235
357.750;1235
357.813;1235
357.875;1240
357.938;1245
358.000;1245
358.063;1242
358.125;1235
358.188;1242
358.250;1232
358.313;1235
358.375;1252
358.438;1245
358.500;1250
358.563;1264
358.625;1262
358.688;1264
358.750;1271
358.813;1252
358.875;1252
358.938;1245
359.000;1247
359.063;1245
359.125;1254
359.188;1250
359.250;1254
359.313;1257
359.375;1259
359.438;1257
359.500;1259
359.563;1250
359.625;1242
359.688;1247
359.750;1257
359.813;1252
359.875;1257
359.938;1271
360.000;1276
360.063;1281
360.125;1271
360.188;1264
360.250;1276
360.313;1257
360.375;1259
360.438;1259
360.500;1250
360.563;1262
360.625;1264
360.688;1264
360.750;1259
360.813;1264
360.875;1264
360.938;1267
361.000;1257
361.063;1254
361.125;1254
361.188;1247
361.250;1247
361.313;1250
361.375;1252
361.438;1250
361.500;1250
361.563;1252
361.625;1252
361.688;1259
361.750;1262
361.813;1257
361.875;1267
361.938;1257
362.000;1257
362.063;1267
362.125;1254
362.188;1247
362.250;1250
362.313;1257
362.375;1252
362.438;1250
362.500;1240
362.563;1250
362.625;1245
362.688;1257
362.750;1245
362.813;1240
362.875;1245
362.938;1254
363.000;1242
363.063;1252
363.125;1262
363.188;1257
363.250;1257
363.313;1264
363.375;1245
363.438;1252
363.500;1252
363.563;1254
363.625;1250
363.688;1252
363.750;1252
363.813;1245
363.875;1250
363.938;1247
364.000;1245
364.063;1262
364.125;1262
364.188;1264
364.250;1257
364.313;1267
364.375;1267
364.438;1269
364.500;1293
364.563;1286
364.625;1271
364.688;1257
364.750;1247
364.813;1247
364.875;1252
364.938;1252
365.000;1257
365.063;1259
365.125;1257
365.188;1257
365.250;1242
365.313;1250
365.375;1245
365.438;1257
365.500;1257
365.563;1237
365.625;1242
365.688;1242
365.750;1242
365.813;1242
365.875;1247
365.938;1237
366.000;1247
366.063;1240
366.125;1230
366.188;1240
366.250;1232
366.313;1240
366.375;1237
366.438;1235
366.500;1247
366.563;1237
366.625;1269
366.688;1269
366.750;1257
366.813;1252
366.875;1254
366.938;1267
367.000;1267
367.063;1267
367.125;1257
367.188;1259
367.250;1267
367.313;1262
367.375;1257
367.438;1254
367.500;1242
367.563;1247
367.625;1245
367.688;1240
367.750;1237
367.813;1267
367.875;1230
367.938;1232
368.000;1247
368.063;1237
368.125;1245
368.188;1250
368.250;1242
368.313;1242
368.375;1237
368.438;1237
368.500;1245
368.563;1242
368.625;1242
368.688;1245
368.750;1252
368.813;1301
368.875;1250
368.938;1240
369.000;1245
369.063;1232
369.125;1245
369.188;1235
369.250;1237
369.313;1235
369.375;1230
369.438;1240
369.500;1242
369.563;1230
369.625;1237
369.688;1237
369.750;1242
369.813;1232
369.875;1232
369.938;1237
370.000;1250
370.063;1257
370.125;1257
370.188;1259
370.250;1240
370.313;1259
370.375;1247
370.438;1252
370.500;1254
370.563;1247
370.625;1245
370.688;1247
370.750;1250
370.813;1245
370.875;1252
370.938;1252
371.000;1245
371.063;1252
371.125;1245
371.188;1259
371.250;1237
371.313;1247
371.375;1242
371.438;1250
371.500;1240
371.563;1245
371.625;1242
371.688;1232
371.750;1242
371.813;1240
371.875;1240
371.938;1247
372.000;1235
372.063;1247
372.125;1250
372.188;1242
372.250;1252
372.313;1250
372.375;1245
372.438;1247
372.500;1240
372.563;1245
372.625;1254
372.688;1250
372.750;1250
372.813;1262
372.875;1262
372.938;1267
373.000;1254
373.063;1259
373.125;1262
373.188;1259
373.250;1247
373.313;1254
373.375;1242
373.438;1232
373.500;1235
373.563;1232
373.625;1232
373.688;1240
373.750;1232
373.813;1245
373.875;1232
373.938;1228
374.000;1237
374.063;1225
374.125;1237
374.188;1242
374.250;1247
374.313;1242
374.375;1237
374.438;1240
374.500;1259
374.563;1259
374.625;1254
374.688;1250
374.750;1254
374.813;1264
374.875;1257
374.938;1269
375.000;1281
375.063;1271
375.125;1267
375.188;1262
375.250;1257
375.313;1250
375.375;1240
375.438;1250
375.500;1247
375.563;1254
375.625;1245
375.688;1250
375.750;1252
375.813;1245
375.875;1254
375.938;1250
376.000;1250
376.063;1254
376.125;1259
376.188;1252
376.250;1264
376.313;1257
376.375;1264
376.438;1252
376.500;1269
376.563;1267
376.625;1267
376.688;1257
376.750;1262
376.813;1254
376.875;1257
376.938;1254
377.000;1252
377.063;1252
377.125;1264
377.188;1264
377.250;1254
377.313;1254
377.375;1254
377.438;1267
377.500;1254
377.563;1254
377.625;1254
377.688;1250
377.750;1257
377.813;1252
377.875;1267
377.938;1279
378.000;1276
378.063;1271
378.125;1274
378.188;1262
378.250;1259
378.313;1267
378.375;1315
378.438;1386
378.500;1423
378.563;1423
378.625;1372
378.688;1345
378.750;1281
378.813;1267
378.875;1267
378.938;1269
379.000;1267
379.063;1267
379.125;1257
379.188;1259
379.250;1254
379.313;1250
379.375;1245
379.438;1254
379.500;1250
379.563;1247
379.625;1252
379.688;1240
379.750;1257
379.813;1257
379.875;1245
379.938;1259
380.000;1259
380.063;1252
380.125;1242
380.188;1240
380.250;1240
380.313;1237
380.375;1237
380.438;1242
380.500;1245
380.563;1228
380.625;1235
380.688;1254
380.750;1279
380.813;1269
380.875;1257
380.938;1264
381.000;1252
381.063;1237
381.125;1237
381.188;1237
381.250;1237
381.313;1247
381.375;1242
381.438;1237
381.500;1225
381.563;1237
381.625;1228
381.688;1230
381.750;1235
381.813;1225
381.875;1232
381.938;1228
382.000;1235
382.063;1230
382.125;1225
382.188;1223
382.250;1237
382.313;1235
382.375;1230
382.438;1228
382.500;1237
382.563;1245
382.625;1235
382.688;1245
382.750;1245
382.813;1232
382.875;1230
382.938;1245
383.000;1245
383.063;1237
383.125;1242
383.188;1250
383.250;1245
383.313;1242
383.375;1245
383.438;1240
383.500;1237
383.563;1245
383.625;1237
383.688;1245
383.750;1245
383.813;1242
383.875;1271
383.938;1296
384.000;1337
384.063;1311
384.125;1303
384.188;1274
384.250;1250
384.313;1259
384.375;1274
384.438;1262
384.500;1254
384.563;1235
384.625;1230
384.688;1225
384.750;1242
384.813;1242
384.875;1240
384.938;1247
385.000;1242
385.063;1240
385.125;1245
385.188;1235
385.250;1237
385.313;1237
385.375;1240
385.438;1232
385.500;1240
385.563;1232
385.625;1240
385.688;1242
385.750;1237
385.813;1245
385.875;1242
385.938;1252
386.000;1247
386.063;1247
386.125;1245
386.188;1230
386.250;1242
386.313;1237
386.375;1240
386.438;1245
386.500;1245
386.563;1230
386.625;1240
386.688;1242
386.750;1240
386.813;1232
386.875;1237
386.938;1240
387.000;1240
387.063;1237
387.125;1230
387.188;1230
387.250;1237
387.313;1247
387.375;1250
387.438;1252
387.500;1247
387.563;1245
387.625;1240
387.688;1242
387.750;1240
387.813;1237
387.875;1230
387.938;1230
388.000;1245
388.063;1228
388.125;1220
388.188;1237
388.250;1240
388.313;1252
388.375;1252
388.438;1240
388.500;1240
388.563;1240
388.625;1237
388.688;1230
388.750;1232
388.813;1235
388.875;1245
388.938;1242
389.000;1245
389.063;1228
389.125;1232
389.188;1235
389.250;1232
389.313;1235
389.375;1237
389.438;1230
389.500;1230
389.563;1235
389.625;1242
389.688;1235
389.750;1228
389.813;1240
389.875;1242
389.938;1237
390.000;1240
390.063;1235
390.125;1237
390.188;1232
390.250;1235
390.313;1237
390.375;1228
390.438;1225
390.500;1228
390.563;1235
390.625;1232
390.688;1245
390.750;1228
390.813;1232
390.875;1245
390.938;1213
391.000;1225
391.063;1223
391.125;1232
391.188;1220
391.250;1230
391.313;1237
391.375;1228
391.438;1230
391.500;1218
391.563;1225
391.625;1232
391.688;1225
391.750;1237
391.813;1237
391.875;1228
391.938;1228
392.000;1228
392.063;1240
392.125;1242
392.188;1240
392.250;1235
392.313;1237
392.375;1240
392.438;1228
392.500;1230
392.563;1232
392.625;1225
392.688;1237
392.750;1242
392.813;1228
392.875;1228
392.938;1242
393.000;1247
393.063;1240
393.125;1230
393.188;1232
393.250;1235
393.313;1230
393.375;1235
393.438;1250
393.500;1240
393.563;1247
393.625;1254
393.688;1235
393.750;1247
393.813;1252
393.875;1247
393.938;1247
394.000;1242
394.063;1237
394.125;1237
394.188;1247
394.250;1240
394.313;1232
394.375;1240
394.438;1232
394.500;1242
394.563;1240
394.625;1240
394.688;1225
394.750;1230
394.813;1230
394.875;1235
394.938;1235
395.000;1242
395.063;1230
395.125;1240
395.188;1232
395.250;1245
395.313;1240
395.375;1240
395.438;1235
395.500;1247
395.563;1240
395.625;1240
395.688;1240
395.750;1237
395.813;1237
395.875;1242
395.938;1247
396.000;1247
396.063;1245
396.125;1242
396.188;1235
396.250;1250
396.313;1242
396.375;1247
396.438;1250
396.500;1250
396.563;1247
396.625;1247
396.688;1240
396.750;1232
396.813;1240
396.875;1237
396.938;1232
397.000;1237
397.063;1240
397.125;1250
397.188;1242
397.250;1242
397.313;1240
397.375;1235
397.438;1235
397.500;1230
397.563;1235
397.625;1230
397.688;1237
397.750;1232
397.813;1237
397.875;1232
397.938;1235
398.000;1230
398.063;1220
398.125;1235
398.188;1225
398.250;1232
398.313;1237
398.375;1225
398.438;1245
398.500;1237
398.563;1232
398.625;1237
398.688;1223
398.750;1230
398.813;1235
398.875;1230
398.938;1230
399.000;1225
399.063;1237
399.125;1237
399.188;1235
399.250;1232
399.313;1240
399.375;1237
399.438;1237
399.500;1235
399.563;1245
399.625;1245
399.688;1245
399.750;1245
399.813;1247
399.875;1245
399.938;1254
400.000;1259
400.063;1250
400.125;1254
400.188;1245
400.250;1232
400.313;1232
400.375;1237
400.438;1237
400.500;1230
400.563;1240
400.625;1240
400.688;1242
400.750;1232
400.813;1230
400.875;1230
400.938;1240
401.000;1237
401.063;1228
401.125;1230
401.188;1237
401.250;1240
401.313;1252
401.375;1242
401.438;1250
401.500;1237
401.563;1240
401.625;1242
401.688;1247
401.750;1230
401.813;1242
401.875;1245
401.938;1237
402.000;1230
402.063;1232
402.125;1237
402.188;1230
402.250;1232
402.313;1237
402.375;1240
402.438;1254
402.500;1252
402.563;1247
402.625;1240
402.688;1240
402.750;1228
402.813;1242
402.875;1225
402.938;1228
403.000;1237
403.063;1230
403.125;1237
403.188;1245
403.250;1250
403.313;1245
403.375;1245
403.438;1235
403.500;1250
403.563;1237
403.625;1240
403.688;1247
403.750;1242
403.813;1254
403.875;1230
403.938;1232
404.000;1232
404.063;1252
404.125;1240
404.188;1259
404.250;1274
404.313;1257
404.375;1247
404.438;1252
404.500;1250
404.563;1250
404.625;1223
404.688;1240
404.750;1240
404.813;1235
404.875;1237
404.938;1237
405.000;1237
405.063;1242
405.125;1232
405.188;1237
405.250;1230
405.313;1235
405.375;1228
405.438;1228
405.500;1235
405.563;1235
405.625;1240
405.688;1232
405.750;1228
405.813;1230
405.875;1218
405.938;1232
406.000;1232
406.063;1225
406.125;1232
406.188;1228
406.250;1225
406.313;1232
406.375;1228
406.438;1225
406.500;1232
406.563;1230
406.625;1247
406.688;1235
406.750;1237
406.813;1230
406.875;1245
406.938;1242
407.000;1237
407.063;1225
407.125;1242
407.188;1230
407.250;1237
407.313;1252
407.375;1247
407.438;1235
407.500;1240
407.563;1235
407.625;1232
407.688;1232
407.750;1237
407.813;1225
407.875;1242
407.938;1254
408.000;1269
408.063;1276
408.125;1269
408.188;1271
408.250;1264
408.313;1257
408.375;1262
408.438;1250
408.500;1250
408.563;1237
408.625;1237
408.688;1245
408.750;1240
408.813;1235
408.875;1240
408.938;1240
409.000;1240
409.063;1254
409.125;1250
409.188;1250
409.250;1250
409.313;1245
409.375;1240
409.438;1240
409.500;1250
409.563;1232
409.625;1237
409.688;1247
409.750;1242
409.813;1237
409.875;1242
409.938;1242
410.000;1250
410.063;1245
410.125;1245
410.188;1240
410.250;1242
410.313;1250
410.375;1225
410.438;1250
410.500;1245
410.563;1247
410.625;1247
410.688;1237
410.750;1240
410.813;1252
410.875;1232
410.938;1245
411.000;1240
411.063;1252
411.125;1240
411.188;1240
411.250;1232
411.313;1240
411.375;1242
411.438;1245
411.500;1230
411.563;1235
411.625;1237
411.688;1240
411.750;1237
411.813;1242
411.875;1237
411.938;1245
412.000;1247
412.063;1232
412.125;1235
412.188;1242
412.250;1232
412.313;1237
412.375;1230
412.438;1240
412.500;1235
412.563;1242
412.625;1240
412.688;1242
412.750;1242
412.813;1230
412.875;1235
412.938;1237
413.000;1240
413.063;1250
413.125;1230
413.188;1237
413.250;1232
413.313;1230
413.375;1235
413.438;1237
413.500;1230
413.563;1228
413.625;1232
413.688;1223
413.750;1230
413.813;1235
413.875;1228
413.938;1223
414.000;1225
414.063;1225
414.125;1225
414.188;1230
414.250;1228
414.313;1230
414.375;1230
414.438;1237
414.500;1228
414.563;1232
414.625;1240
414.688;1240
414.750;1232
414.813;1240
414.875;1250
414.938;1247
415.000;1252
415.063;1250
415.125;1274
415.188;1267
415.250;1269
415.313;1257
415.375;1252
415.438;1259
415.500;1240
415.563;1250
415.625;1264
415.688;1250
415.750;1259
415.813;1240
415.875;1247
415.938;1237
416.000;1235
416.063;1242
416.125;1223
416.188;1235
416.250;1237
416.313;1232
416.375;1240
416.438;1242
416.500;1225
416.563;1245
416.625;1242
416.688;1240
416.750;1247
416.813;1235
416.875;1240
416.938;1232
417.000;1232
417.063;1223
417.125;1240
417.188;1232
417.250;1235
417.313;1242
417.375;1223
417.438;1235
417.500;1240
417.563;1240
417.625;1237
417.688;1232
417.750;1240
417.813;1237
417.875;1235
417.938;1240
418.000;1230
418.063;1232
418.125;1220
418.188;1237
418.250;1240
418.313;1235
418.375;1230
418.438;1237
418.500;1235
418.563;1230
418.625;1230
418.688;1240
418.750;1242
418.813;1235
418.875;1237
418.938;1237
419.000;1235
419.063;1240
419.125;1237
419.188;1240
419.250;1235
419.313;1235
419.375;1245
419.438;1230
419.500;1228
419.563;1230
419.625;1232
419.688;1230
419.750;1230
419.813;1240
419.875;1237
419.938;1262
420.000;1274
420.063;1247
420.125;1250
420.188;1245
420.250;1232
420.313;1232
420.375;1230
420.438;1235
420.500;1237
420.563;1237
420.625;1242
420.688;1240
420.750;1240
420.813;1245
420.875;1250
420.938;1252
421.000;1245
421.063;1245
421.125;1237
421.188;1235
421.250;1240
421.313;1230
421.375;1228
421.438;1230
421.500;1225
421.563;1240
421.625;1220
421.688;1230
421.750;1237
421.813;1228
421.875;1215
421.938;1218
422.000;1228
422.063;1230
422.125;1232
422.188;1245
422.250;1228
422.313;1230
422.375;1242
422.438;1242
422.500;1240
422.563;1237
422.625;1237
422.688;1240
422.750;1240
422.813;1250
422.875;1247
422.938;1250
423.000;1240
423.063;1242
423.125;1240
423.188;1237
423.250;1252
423.313;1254
423.375;1250
423.438;1250
423.500;1257
423.563;1245
423.625;1242
423.688;1252
423.750;1250
423.813;1250
423.875;1240
423.938;1245
424.000;1242
424.063;1245
424.125;1250
424.188;1242
424.250;1230
424.313;1240
424.375;1235
424.438;1230
424.500;1230
424.563;1237
424.625;1225
424.688;1240
424.750;1245
424.813;1245
424.875;1237
424.938;1252
425.000;1237
425.063;1240
425.125;1250
425.188;1252
425.250;1242
425.313;1247
425.375;1242
425.438;1242
425.500;1232
425.563;1247
425.625;1230
425.688;1225
425.750;1245
425.813;1240
425.875;1240
425.938;1232
426.000;1232
426.063;1232
426.125;1230
426.188;1235
426.250;1235
426.313;1223
426.375;1230
426.438;1230
426.500;1228
426.563;1225
426.625;1225
426.688;1225
426.750;1223
426.813;1237
426.875;1228
426.938;1225
427.000;1225
427.063;1220
427.125;1232
427.188;1225
427.250;1223
427.313;1228
427.375;1228
427.438;1220
427.500;1247
427.563;1228
427.625;1230
427.688;1228
427.750;1232
427.813;1223
427.875;1242
427.938;1240
428.000;1230
428.063;1230
428.125;1228
428.188;1225
428.250;1240
428.313;1237
428.375;1228
428.438;1232
428.500;1232
428.563;1240
428.625;1245
428.688;1237
428.750;1232
428.813;1230
428.875;1232
428.938;1230
429.000;1230
429.063;1225
429.125;1220
429.188;1223
429.250;1225
429.313;1240
429.375;1225
429.438;1213
429.500;1232
429.563;1220
429.625;1230
429.688;1232
429.750;1213
429.813;1230
429.875;1225
429.938;1213
430.000;1225
430.063;1230
430.125;1213
430.188;1213
430.250;1220
430.313;1230
430.375;1228
430.438;1225
430.500;1230
430.563;1225
430.625;1218
430.688;1218
430.750;1237
430.813;1223
430.875;1230
430.938;1228
431.000;1242
431.063;1240
431.125;1230
431.188;1240
431.250;1240
431.313;1240
431.375;1235
431.438;1225
431.500;1225
431.563;1230
431.625;1235
431.688;1218
431.750;1230
431.813;1235
431.875;1242
431.938;1284
432.000;1320
432.063;1325
432.125;1291
432.188;1274
432.250;1247
432.313;1225
432.375;1228
432.438;1237
432.500;1240
432.563;1237
432.625;1235
432.688;1230
432.750;1232
432.813;1232
432.875;1228
432.938;1230
433.000;1237
433.063;1237
433.125;1228
433.188;1230
433.250;1240
433.313;1230
433.375;1235
433.438;1218
433.500;1213
433.563;1225
433.625;1230
433.688;1230
433.750;1225
433.813;1232
433.875;1228
433.938;1225
434.000;1242
434.063;1228
434.125;1228
434.188;1235
434.250;1237
434.313;1240
434.375;1232
434.438;1235
434.500;1230
434.563;1232
434.625;1230
434.688;1242
434.750;1225
434.813;1240
434.875;1225
434.938;1240
435.000;1235
435.063;1228
435.125;1237
435.188;1237
435.250;1228
435.313;1230
435.375;1240
435.438;1220
435.500;1242
435.563;1242
435.625;1220
435.688;1237
435.750;1237
435.813;1237
435.875;1223
435.938;1230
436.000;1237
436.063;1228
436.125;1223
436.188;1247
436.250;1235
436.313;1240
436.375;1232
436.438;1245
436.500;1247
436.563;1237
436.625;1250
436.688;1242
436.750;1250
436.813;1240
436.875;1225
436.938;1235
437.000;1223
437.063;1240
437.125;1235
437.188;1230
437.250;1230
437.313;1225
437.375;1232
437.438;1232
437.500;1230
437.563;1225
437.625;1228
437.688;1228
437.750;1230
437.813;1230
437.875;1232
437.938;1230
438.000;1228
438.063;1230
438.125;1230
438.188;1223
438.250;1213
438.313;1228
438.375;1225
438.438;1228
438.500;1223
438.563;1225
438.625;1218
438.688;1218
438.750;1220
438.813;1230
438.875;1225
438.938;1232
439.000;1225
439.063;1235
439.125;1230
439.188;1242
439.250;1232
439.313;1237
439.375;1240
439.438;1240
439.500;1225
439.563;1232
439.625;1230
439.688;1228
439.750;1228
439.813;1220
439.875;1240
439.938;1245
440.000;1247
440.063;1232
440.125;1245
440.188;1245
440.250;1232
440.313;1230
440.375;1230
440.438;1245
440.500;1237
440.563;1240
440.625;1237
440.688;1232
440.750;1230
440.813;1220
440.875;1245
440.938;1232
441.000;1237
441.063;1240
441.125;1240
441.188;1242
441.250;1237
441.313;1240
441.375;1242
441.438;1228
441.500;1237
441.563;1245
441.625;1245
441.688;1232
441.750;1237
441.813;1237
441.875;1240
441.938;1237
442.000;1242
442.063;1247
442.125;1237
442.188;1232
442.250;1225
442.313;1230
442.375;1240
442.438;1235
442.500;1242
442.563;1242
442.625;1237
442.688;1232
442.750;1232
442.813;1225
442.875;1232
442.938;1237
443.000;1240
443.063;1242
443.125;1232
443.188;1235
443.250;1230
443.313;1232
443.375;1232
443.438;1237
443.500;1230
443.563;1230
443.625;1240
443.688;1237
443.750;1250
443.813;1230
443.875;1240
443.938;1240
444.000;1232
444.063;1237
444.125;1232
444.188;1237
444.250;1225
444.313;1240
444.375;1230
444.438;1223
444.500;1223
444.563;1228
444.625;1240
444.688;1230
444.750;1228
444.813;1232
444.875;1232
444.938;1225
445.000;1242
445.063;1228
445.125;1235
445.188;1250
445.250;1245
445.313;1237
445.375;1232
445.438;1242
445.500;1240
445.563;1228
445.625;1223
445.688;1228
445.750;1225
445.813;1235
445.875;1230
445.938;1235
446.000;1242
446.063;1230
446.125;1225
446.188;1218
446.250;1223
446.313;1225
446.375;1223
446.438;1225
446.500;1223
446.563;1230
446.625;1225
446.688;1225
446.750;1232
446.813;1225
446.875;1220
446.938;1235
447.000;1223
447.063;1240
447.125;1230
447.188;1240
447.250;1228
447.313;1240
447.375;1240
447.438;1242
447.500;1228
447.563;1252
447.625;1250
447.688;1235
447.750;1232
447.813;1232
447.875;1264
447.938;1293
448.000;1308
448.063;1276
448.125;1259
448.188;1240
448.250;1228
448.313;1230
448.375;1228
448.438;1218
448.500;1230
448.563;1218
448.625;1240
448.688;1232
448.750;1225
448.813;1232
448.875;1223
448.938;1228
449.000;1235
449.063;1240
449.125;1235
449.188;1230
449.250;1245
449.313;1237
449.375;1240
449.438;1230
449.500;1240
449.563;1228
449.625;1232
449.688;1245
449.750;1232
449.813;1250
449.875;1315
449.938;1379
450.000;1435
450.063;1391
450.125;1899
450.188;1967
450.250;1840
450.313;1738
450.375;1713
450.438;1462
450.500;1455
450.563;1252
450.625;1237
450.688;1325
450.750;1240
450.813;1284
450.875;1267
450.938;1274
451.000;1276
451.063;1267
451.125;1271
451.188;1274
451.250;1274
451.313;1267
451.375;1267
451.438;1269
451.500;1269
451.563;1250
451.625;1262
451.688;1259
451.750;1250
451.813;1262
451.875;1259
451.938;1257
452.000;1259
452.063;1262
452.125;1267
452.188;1264
452.250;1257
452.313;1262
452.375;1262
452.438;1254
452.500;1259
452.563;1269
452.625;1269
452.688;1269
452.750;1259
452.813;1262
452.875;1267
452.938;1267
453.000;1269
453.063;1269
453.125;1257
453.188;1264
453.250;1259
453.313;1257
453.375;1257
453.438;1250
453.500;1262
453.563;1252
453.625;1254
453.688;1250
453.750;1250
453.813;1252
453.875;1250
453.938;1252
454.000;1262
454.063;1245
454.125;1250
454.188;1245
454.250;1235
454.313;1247
454.375;1250
454.438;1252
454.500;1252
454.563;1259
454.625;1250
454.688;1245
454.750;1264
454.813;1264
454.875;1259
454.938;1259
455.000;1269
455.063;1264
455.125;1271
455.188;1264
455.250;1259
455.313;1254
455.375;1259
455.438;1279
455.500;1262
455.563;1264
455.625;1264
455.688;1252
455.750;1259
455.813;1262
455.875;1269
455.938;1303
456.000;1347
456.063;1374
456.125;1335
456.188;1328
456.250;1303
456.313;1259
456.375;1257
456.438;1252
456.500;1259
456.563;1269
456.625;1264
456.688;1259
456.750;1262
456.813;1271
456.875;1257
456.938;1259
457.000;1262
457.063;1252
457.125;1267
457.188;1250
457.250;1264
457.313;1257
457.375;1259
457.438;1267
457.500;1264
457.563;1252
457.625;1240
457.688;1252
457.750;1252
457.813;1240
457.875;1252
457.938;1250
458.000;1252
458.063;1267
458.125;1250
458.188;1250
458.250;1240
458.313;1262
458.375;1267
458.438;1259
458.500;1252
458.563;1264
458.625;1254
458.688;1247
458.750;1257
458.813;1247
458.875;1259
458.938;1264
459.000;1254
459.063;1264
459.125;1271
459.188;1264
459.250;1257
459.313;1264
459.375;1254
459.438;1247
459.500;1252
459.563;1250
459.625;1257
459.688;1262
459.750;1250
459.813;1262
459.875;1276
459.938;1308
460.000;1337
460.063;1328
460.125;1313
460.188;1301
460.250;1262
460.313;1274
460.375;1264
460.438;1264
460.500;1252
460.563;1267
460.625;1269
460.688;1252
460.750;1262
460.813;1262
460.875;1245
460.938;1250
461.000;1257
461.063;1250
461.125;1250
461.188;1264
461.250;1252
461.313;1264
461.375;1257
461.438;1259
461.500;1269
461.563;1269
461.625;1269
461.688;1257
461.750;1262
461.813;1262
461.875;1257
461.938;1264
462.000;1252
462.063;1259
462.125;1250
462.188;1257
462.250;1267
462.313;1264
462.375;1237
462.438;1259
462.500;1252
462.563;1247
462.625;1262
462.688;1250
462.750;1264
462.813;1250
462.875;1259
462.938;1262
463.000;1267
463.063;1264
463.125;1271
463.188;1257
463.250;1254
463.313;1250
463.375;1259
463.438;1247
463.500;1262
463.563;1262
463.625;1259
463.688;1257
463.750;1257
463.813;1252
463.875;1257
463.938;1274
464.000;1267
464.063;1281
464.125;1250
464.188;1257
464.250;1254
464.313;1264
464.375;1262
464.438;1257
464.500;1259
464.563;1259
464.625;1259
464.688;1269
464.750;1259
464.813;1264
464.875;1252
464.938;1264
465.000;1264
465.063;1267
465.125;1257
465.188;1269
465.250;1254
465.313;1257
465.375;1264
465.438;1250
465.500;1264
465.563;1259
465.625;1264
465.688;1257
465.750;1254
465.813;1250
465.875;1252
465.938;1267
466.000;1259
466.063;1267
466.125;1262
466.188;1257
466.250;1257
466.313;1257
466.375;1252
466.438;1271
466.500;1250
466.563;1262
466.625;1252
466.688;1252
466.750;1254
466.813;1254
466.875;1250
466.938;1235
467.000;1240
467.063;1262
467.125;1237
467.188;1262
467.250;1245
467.313;1259
467.375;1269
467.438;1276
467.500;1274
467.563;1274
467.625;1274
467.688;1269
467.750;1257
467.813;1262
467.875;1257
467.938;1254
468.000;1267
468.063;1276
468.125;1259
468.188;1267
468.250;1257
468.313;1264
468.375;1257
468.438;1271
468.500;1264
468.563;1252
468.625;1245
468.688;1237
468.750;1240
468.813;1242
468.875;1237
468.938;1247
469.000;1257
469.063;1250
469.125;1250
469.188;1259
469.250;1257
469.313;1247
469.375;1262
469.438;1259
469.500;1257
469.563;1247
469.625;1242
469.688;1232
469.750;1237
469.813;1250
469.875;1254
469.938;1237
470.000;1242
470.063;1240
470.125;1237
470.188;1232
470.250;1262
470.313;1298
470.375;1335
470.438;1313
470.500;1293
470.563;1279
470.625;1262
470.688;1254
470.750;1242
470.813;1245
470.875;1257
470.938;1259
471.000;1250
471.063;1262
471.125;1315
471.188;1384
471.250;1359
471.313;1328
471.375;1337
471.438;1303
471.500;1257
471.563;1250
471.625;1252
471.688;1257
471.750;1250
471.813;1262
471.875;1254
471.938;1245
472.000;1247
472.063;1237
472.125;1242
472.188;1240
472.250;1240
472.313;1245
472.375;1247
472.438;1240
472.500;1252
472.563;1247
472.625;1242
472.688;1245
472.750;1250
472.813;1242
472.875;1245
472.938;1247
473.000;1242
473.063;1235
473.125;1240
473.188;1252
473.250;1247
473.313;1240
473.375;1245
473.438;1250
473.500;1254
473.563;1245
473.625;1240
473.688;1240
473.750;1235
473.813;1247
473.875;1245
473.938;1245
474.000;1247
474.063;1242
474.125;1250
474.188;1254
474.250;1252
474.313;1254
474.375;1245
474.438;1252
474.500;1240
474.563;1240
474.625;1252
474.688;1242
474.750;1250
474.813;1240
474.875;1245
474.938;1247
475.000;1245
475.063;1237
475.125;1237
475.188;1245
475.250;1247
475.313;1235
475.375;1242
475.438;1247
475.500;1237
475.563;1232
475.625;1235
475.688;1245
475.750;1237
475.813;1245
475.875;1240
475.938;1237
476.000;1240
476.063;1232
476.125;1228
476.188;1232
476.250;1240
476.313;1232
476.375;1235
476.438;1228
476.500;1240
476.563;1240
476.625;1245
476.688;1250
476.750;1274
476.813;1262
476.875;1252
476.938;1242
477.000;1242
477.063;1230
477.125;1232
477.188;1237
477.250;1240
477.313;1230
477.375;1230
477.438;1228
477.500;1230
477.563;1235
477.625;1228
477.688;1232
477.750;1215
477.813;1220
477.875;1223
477.938;1232
478.000;1225
478.063;1240
478.125;1223
478.188;1228
478.250;1230
478.313;1242
478.375;1228
478.438;1232
478.500;1240
478.563;1240
478.625;1237
478.688;1240
478.750;1232
478.813;1235
478.875;1240
478.938;1240
479.000;1240
479.063;1237
479.125;1242
479.188;1245
479.250;1232
479.313;1237
479.375;1245
479.438;1240
479.500;1245
479.563;1242
479.625;1240
479.688;1242
479.750;1232
479.813;1240
479.875;1267
479.938;1308
480.000;1354
480.063;1394
480.125;1357
480.188;1328
480.250;1306
480.313;1257
480.375;1230
480.438;1242
480.500;1237
480.563;1223
480.625;1218
480.688;1245
480.750;1240
480.813;1242
480.875;1240
480.938;1245
481.000;1240
481.063;1232
481.125;1230
481.188;1240
481.250;1235
481.313;1240
481.375;1245
481.438;1237
481.500;1230
481.563;1237
481.625;1242
481.688;1235
481.750;1230
481.813;1242
481.875;1232
481.938;1230
482.000;1242
482.063;1237
482.125;1232
482.188;1240
482.250;1230
482.313;1242
482.375;1242
482.438;1235
482.500;1237
482.563;1245
482.625;1237
482.688;1240
482.750;1232
482.813;1230
482.875;1245
482.938;1252
483.000;1264
483.063;1262
483.125;1242
483.188;1242
483.250;1242
483.313;1232
483.375;1252
483.438;1289
483.500;1315
483.563;1298
483.625;1286
483.688;1281
483.750;1250
483.813;1254
483.875;1242
483.938;1237
484.000;1235
484.063;1235
484.125;1247
484.188;1240
484.250;1237
484.313;1237
484.375;1232
484.438;1235
484.500;1237
484.563;1245
484.625;1250
484.688;1247
484.750;1247
484.813;1235
484.875;1232
484.938;1232
485.000;1232
485.063;1237
485.125;1228
485.188;1232
485.250;1225
485.313;1225
485.375;1237
485.438;1232
485.500;1232
485.563;1245
485.625;1230
485.688;1225
485.750;1230
485.813;1225
485.875;1235
485.938;1230
486.000;1240
486.063;1228
486.125;1230
486.188;1230
486.250;1235
486.313;1228
486.375;1230
486.438;1232
486.500;1223
486.563;1220
486.625;1230
486.688;1232
486.750;1232
486.813;1230
486.875;1237
486.938;1250
487.000;1223
487.063;1242
487.125;1240
487.188;1245
487.250;1245
487.313;1247
487.375;1245
487.438;1230
487.500;1242
487.563;1228
487.625;1237
487.688;1232
487.750;1245
487.813;1237
487.875;1240
487.938;1245
488.000;1245
488.063;1240
488.125;1247
488.188;1252
488.250;1254
488.313;1242
488.375;1235
488.438;1245
488.500;1237
488.563;1237
488.625;1232
488.688;1242
488.750;1235
488.813;1247
488.875;1237
488.938;1235
489.000;1230
489.063;1235
489.125;1232
489.188;1240
489.250;1232
489.313;1220
489.375;1230
489.438;1237
489.500;1228
489.563;1235
489.625;1225
489.688;1223
489.750;1230
489.813;1237
489.875;1228
489.938;1225
490.000;1235
490.063;1242
490.125;1225
490.188;1235
490.250;1237
490.313;1230
490.375;1232
490.438;1232
490.500;1228
490.563;1232
490.625;1230
490.688;1230
490.750;1230
490.813;1225
490.875;1228
490.938;1223
491.000;1230
491.063;1232
491.125;1230
491.188;1240
491.250;1230
491.313;1232
491.375;1240
491.438;1235
491.500;1232
491.563;1232
491.625;1228
491.688;1225
491.750;1232
491.813;1240
491.875;1235
491.938;1225
492.000;1225
492.063;1225
492.125;1237
492.188;1237
492.250;1240
492.313;1235
492.375;1232
492.438;1247
492.500;1237
492.563;1225
492.625;1230
492.688;1225
492.750;1237
492.813;1237
492.875;1235
492.938;1225
493.000;1228
493.063;1230
493.125;1242
493.188;1232
493.250;1223
493.313;1230
493.375;1232
493.438;1235
493.500;1228
493.563;1235
493.625;1228
493.688;1235
493.750;1230
493.813;1235
493.875;1232
493.938;1230
494.000;1230
494.063;1225
494.125;1240
494.188;1220
494.250;1218
494.313;1228
494.375;1232
494.438;1237
494.500;1228
494.563;1240
494.625;1228
494.688;1242
494.750;1235
494.813;1228
494.875;1220
494.938;1230
495.000;1235
495.063;1230
495.125;1228
495.188;1230
495.250;1237
495.313;1235
495.375;1218
495.438;1228
495.500;1230
495.563;1228
495.625;1228
495.688;1232
495.750;1228
495.813;1232
495.875;1232
495.938;1242
496.000;1240
496.063;1225
496.125;1240
496.188;1237
496.250;1232
496.313;1230
496.375;1235
496.438;1230
496.500;1228
496.563;1235
496.625;1230
496.688;1230
496.750;1228
496.813;1228
496.875;1220
496.938;1228
497.000;1228
497.063;1242
497.125;1242
497.188;1237
497.250;1232
497.313;1228
497.375;1230
497.438;1247
497.500;1240
497.563;1220
497.625;1237
497.688;1230
497.750;1230
497.813;1237
497.875;1225
497.938;1235
498.000;1232
498.063;1230
498.125;1242
498.188;1230
498.250;1225
498.313;1232
498.375;1235
498.438;1254
498.500;1237
498.563;1237
498.625;1232
498.688;1240
498.750;1228
498.813;1225
498.875;1235
498.938;1232
499.000;1242
499.063;1237
499.125;1242
499.188;1245
499.250;1242
499.313;1242
499.375;1240
499.438;1230
499.500;1235
499.563;1245
499.625;1250
499.688;1245
499.750;1242
499.813;1242
499.875;1318
499.938;1401
500.000;1462
500.063;1428
500.125;1394
500.188;1354
500.250;1269
500.313;1237
500.375;1240
500.438;1232
500.500;1237
500.563;1237
500.625;1237
500.688;1235
500.750;1235
500.813;1247
500.875;1237
500.938;1250
501.000;1240
501.063;1230
501.125;1242
501.188;1240
501.250;1237
501.313;1245
501.375;1240
501.438;1247
501.500;1242
501.563;1242
501.625;1237
501.688;1242
501.750;1228
501.813;1228
501.875;1237
501.938;1232
502.000;1228
502.063;1232
502.125;1218
502.188;1232
502.250;1237
502.313;1240
502.375;1228
502.438;1235
502.500;1230
502.563;1242
502.625;1232
502.688;1230
502.750;1223
502.813;1240
502.875;1237
502.938;1235
503.000;1237
503.063;1232
503.125;1240
503.188;1225
503.250;1228
503.313;1250
503.375;1245
503.438;1250
503.500;1237
503.563;1237
503.625;1242
503.688;1240
503.750;1242
503.813;1235
503.875;1240
503.938;1240
504.000;1262
504.063;1276
504.125;1274
504.188;1259
504.250;1257
504.313;1245
504.375;1242
504.438;1240
504.500;1247
504.563;1230
504.625;1240
504.688;1228
504.750;1232
504.813;1242
504.875;1232
504.938;1232
505.000;1250
505.063;1237
505.125;1247
505.188;1250
505.250;1237
505.313;1245
505.375;1245
505.438;1240
505.500;1235
505.563;1242
505.625;1245
505.688;1245
505.750;1240
505.813;1230
505.875;1235
505.938;1232
506.000;1235
506.063;1242
506.125;1237
506.188;1230
506.250;1223
506.313;1240
506.375;1220
506.438;1220
506.500;1232
506.563;1225
506.625;1223
506.688;1220
506.750;1242
506.813;1223
506.875;1230
506.938;1220
507.000;1235
507.063;1228
507.125;1237
507.188;1228
507.250;1225
507.313;1242
507.375;1230
507.438;1235
507.500;1232
507.563;1230
507.625;1230
507.688;1223
507.750;1228
507.813;1232
507.875;1232
507.938;1235
508.000;1230
508.063;1225
508.125;1228
508.188;1220
508.250;1230
508.313;1228
508.375;1223
508.438;1230
508.500;1232
508.563;1232
508.625;1232
508.688;1225
508.750;1242
508.813;1225
508.875;1245
508.938;1232
509.000;1225
509.063;1228
509.125;1230
509.188;1237
509.250;1235
509.313;1235
509.375;1228
509.438;1225
509.500;1228
509.563;1213
509.625;1232
509.688;1220
509.750;1230
509.813;1228
509.875;1228
509.938;1237
510.000;1225
510.063;1228
510.125;1225
510.188;1230
510.250;1225
510.313;1223
510.375;1230
510.438;1225
510.500;1225
510.563;1223
510.625;1230
510.688;1232
510.750;1218
510.813;1218
510.875;1228
510.938;1220
511.000;1223
511.063;1232
511.125;1232
511.188;1225
511.250;1232
511.313;1225
511.375;1232
511.438;1230
511.500;1230
511.563;1230
511.625;1225
511.688;1223
511.750;1225
511.813;1225
511.875;1230
511.938;1218
512.000;1232
512.063;1223
512.125;1225
512.188;1225
512.250;1228
512.313;1228
512.375;1223
512.438;1228
512.500;1220
512.563;1225
512.625;1223
512.688;1225
512.750;1237
512.813;1228
512.875;1230
512.938;1220
513.000;1230
513.063;1218
513.125;1225
513.188;1232
513.250;1228
513.313;1215
513.375;1218
513.438;1225
513.500;1218
513.563;1225
513.625;1228
513.688;1223
513.750;1218
513.813;1225
513.875;1225
513.938;1220
514.000;1228
514.063;1235
514.125;1223
514.188;1228
514.250;1232
514.313;1228
514.375;1213
514.438;1223
514.500;1220
514.563;1223
514.625;1223
514.688;1218
514.750;1213
514.813;1228
514.875;1225
514.938;1228
515.000;1220
515.063;1223
515.125;1235
515.188;1254
515.250;1242
515.313;1237
515.375;1240
515.438;1223
515.500;1223
515.563;1218
515.625;1225
515.688;1225
515.750;1228
515.813;1228
515.875;1220
515.938;1230
516.000;1223
516.063;1228
516.125;1218
516.188;1225
516.250;1223
516.313;1223
516.375;1218
516.438;1220
516.500;1225
516.563;1201
516.625;1210
516.688;1223
516.750;1220
516.813;1220
516.875;1228
516.938;1218
517.000;1225
517.063;1230
517.125;1235
517.188;1228
517.250;1218
517.313;1220
517.375;1225
517.438;1215
517.500;1218
517.563;1225
517.625;1218
517.688;1220
517.750;1225
517.813;1213
517.875;1213
517.938;1228
518.000;1225
518.063;1228
518.125;1223
518.188;1220
518.250;1220
518.313;1213
518.375;1208
518.438;1218
518.500;1225
518.563;1218
518.625;1225
518.688;1218
518.750;1228
518.813;1232
518.875;1230
518.938;1245
519.000;1223
519.063;1225
519.125;1223
519.188;1237
519.250;1240
519.313;1240
519.375;1230
519.438;1240
519.500;1245
519.563;1242
519.625;1247
519.688;1247
519.750;1257
519.813;1240
519.875;1252
519.938;1250
520.000;1247
520.063;1247
520.125;1242
520.188;1252
520.250;1242
520.313;1247
520.375;1250
520.438;1242
520.500;1247
520.563;1247
520.625;1242
520.688;1232
520.750;1228
520.813;1232
520.875;1232
520.938;1247
521.000;1232
521.063;1237
521.125;1247
521.188;1247
521.250;1252
521.313;1252
521.375;1252
521.438;1240
521.500;1237
521.563;1230
521.625;1235
521.688;1250
521.750;1245
521.813;1240
521.875;1230
521.938;1240
522.000;1250
522.063;1240
522.125;1242
522.188;1230
522.250;1237
522.313;1232
522.375;1250
522.438;1247
522.500;1232
522.563;1247
522.625;1245
522.688;1257
522.750;1247
522.813;1262
522.875;1250
522.938;1254
523.000;1250
523.063;1250
523.125;1257
523.188;1250
523.250;1254
523.313;1252
523.375;1254
523.438;1257
523.500;1250
523.563;1257
523.625;1252
523.688;1250
523.750;1257
523.813;1240
523.875;1250
523.938;1247
524.000;1245
524.063;1254
524.125;1247
524.188;1250
524.250;1245
524.313;1250
524.375;1257
524.438;1257
524.500;1254
524.563;1247
524.625;1250
524.688;1250
524.750;1250
524.813;1254
524.875;1257
524.938;1247
525.000;1264
525.063;1262
525.125;1262
525.188;1252
525.250;1257
525.313;1257
525.375;1247
525.438;1254
525.500;1254
525.563;1254
525.625;1257
525.688;1257
525.750;1252
525.813;1250
525.875;1252
525.938;1257
526.000;1250
526.063;1240
526.125;1228
526.188;1230
526.250;1215
526.313;1218
526.375;1223
526.438;1235
526.500;1223
526.563;1220
526.625;1223
526.688;1228
526.750;1225
526.813;1235
526.875;1213
526.938;1225
527.000;1210
527.063;1213
527.125;1230
527.188;1225
527.250;1237
527.313;1228
527.375;1228
527.438;1218
527.500;1218
527.563;1228
527.625;1223
527.688;1230
527.750;1215
527.813;1225
527.875;1208
527.938;1235
528.000;1259
528.063;1281
528.125;1254
528.188;1252
528.250;1232
528.313;1220
528.375;1223
528.438;1210
528.500;1213
528.563;1218
528.625;1235
528.688;1230
528.750;1218
528.813;1218
528.875;1210
528.938;1223
529.000;1218
529.063;1220
529.125;1208
529.188;1220
529.250;1223
529.313;1225
529.375;1225
529.438;1230
529.500;1225
529.563;1213
529.625;1220
529.688;1223
529.750;1225
529.813;1220
529.875;1213
529.938;1225
530.000;1225
530.063;1225
530.125;1215
530.188;1228
530.250;1218
530.313;1218
530.375;1225
530.438;1220
530.500;1223
530.563;1210
530.625;1210
530.688;1208
530.750;1213
530.813;1225
530.875;1225
530.938;1225
531.000;1218
531.063;1218
531.125;1215
531.188;1220
531.250;1220
531.313;1210
531.375;1218
531.438;1223
531.500;1218
531.563;1220
531.625;1223
531.688;1223
531.750;1213
531.813;1218
531.875;1228
531.938;1213
532.000;1215
532.063;1218
532.125;1213
532.188;1218
532.250;1218
532.313;1225
532.375;1215
532.438;1215
532.500;1215
532.563;1223
532.625;1213
532.688;1223
532.750;1228
532.813;1218
532.875;1218
532.938;1220
533.000;1215
533.063;1230
533.125;1223
533.188;1220
533.250;1220
533.313;1213
533.375;1218
533.438;1218
533.500;1220
533.563;1213
533.625;1218
533.688;1218
533.750;1220
533.813;1225
533.875;1210
533.938;1215
534.000;1220
534.063;1218
534.125;1206
534.188;1228
534.250;1213
534.313;1213
534.375;1223
534.438;1220
534.500;1210
534.563;1228
534.625;1223
534.688;1213
534.750;1218
534.813;1220
534.875;1223
534.938;1225
535.000;1228
535.063;1225
535.125;1228
535.188;1235
535.250;1228
535.313;1230
535.375;1225
535.438;1228
535.500;1225
535.563;1220
535.625;1220
535.688;1235
535.750;1220
535.813;1218
535.875;1230
535.938;1230
536.000;1225
536.063;1232
536.125;1232
536.188;1225
536.250;1225
536.313;1225
536.375;1220
536.438;1228
536.500;1220
536.563;1223
536.625;1220
536.688;1225
536.750;1220
536.813;1232
536.875;1215
536.938;1228
537.000;1225
537.063;1220
537.125;1218
537.188;1215
537.250;1208
537.313;1218
537.375;1218
537.438;1218
537.500;1223
537.563;1228
537.625;1228
537.688;1218
537.750;1225
537.813;1228
537.875;1228
537.938;1223
538.000;1232
538.063;1220
538.125;1225
538.188;1228
538.250;1225
538.313;1223
538.375;1228
538.438;1228
538.500;1235
538.563;1218
538.625;1225
538.688;1230
538.750;1232
538.813;1235
538.875;1230
538.938;1237
539.000;1232
539.063;1240
539.125;1235
539.188;1232
539.250;1230
539.313;1240
539.375;1235
539.438;1245
539.500;1252
539.563;1250
539.625;1252
539.688;1250
539.750;1250
539.813;1252
539.875;1252
539.938;1252
540.000;1247
540.063;1252
540.125;1262
540.188;1264
540.250;1269
540.313;1271
540.375;1271
540.438;1264
540.500;1257
540.563;1262
540.625;1254
540.688;1259
540.750;1257
540.813;1262
540.875;1262
540.938;1269
541.000;1291
541.063;1296
541.125;1303
541.188;1293
541.250;1296
541.313;1286
541.375;1274
541.438;1276
541.500;1259
541.563;1254
541.625;1267
541.688;1267
541.750;1274
541.813;1276
541.875;1274
541.938;1276
542.000;1281
542.063;1276
542.125;1276
542.188;1279
542.250;1267
542.313;1267
542.375;1279
542.438;1259
542.500;1279
542.563;1271
542.625;1276
542.688;1276
542.750;1274
542.813;1276
542.875;1276
542.938;1279
543.000;1279
543.063;1284
543.125;1279
543.188;1276
543.250;1279
543.313;1286
543.375;1281
543.438;1291
543.500;1279
543.563;1289
543.625;1286
543.688;1281
543.750;1291
543.813;1284
543.875;1296
543.938;1293
544.000;1303
544.063;1303
544.125;1298
544.188;1306
544.250;1306
544.313;1301
544.375;1301
544.438;1311
544.500;1293
544.563;1284
544.625;1284
544.688;1284
544.750;1296
544.813;1298
544.875;1308
544.938;1301
545.000;1303
545.063;1301
545.125;1291
545.188;1291
545.250;1281
545.313;1281
545.375;1276
545.438;1267
545.500;1262
545.563;1264
545.625;1259
545.688;1267
545.750;1271
545.813;1279
545.875;1274
545.938;1257
546.000;1252
546.063;1225
546.125;1223
546.188;1208
546.250;1218
546.313;1213
546.375;1225
546.438;1213
546.500;1215
546.563;1220
546.625;1210
546.688;1206
546.750;1210
546.813;1210
546.875;1220
546.938;1210
547.000;1213
547.063;1210
547.125;1218
547.188;1218
547.250;1220
547.313;1220
547.375;1220
547.438;1215
547.500;1220
547.563;1206
547.625;1215
547.688;1225
547.750;1215
547.813;1213
547.875;1218
547.938;1208
548.000;1208
548.063;1218
548.125;1213
548.188;1215
548.250;1220
548.313;1225
548.375;1218
548.438;1213
548.500;1220
548.563;1213
548.625;1210
548.688;1220
548.750;1218
548.813;1228
548.875;1215
548.938;1215
549.000;1215
549.063;1203
549.125;1215
549.188;1220
549.250;1218
549.313;1208
549.375;1218
549.438;1223
549.500;1230
549.563;1220
549.625;1223
549.688;1218
549.750;1213
549.813;1220
549.875;1218
549.938;1218
550.000;1213
550.063;1215
550.125;1220
550.188;1228
550.250;1218
550.313;1230
550.375;1220
550.438;1218
550.500;1215
550.563;1218
550.625;1213
550.688;1213
550.750;1210
550.813;1228
550.875;1213
550.938;1206
551.000;1218
551.063;1201
551.125;1223
551.188;1218
551.250;1210
551.313;1220
551.375;1210
551.438;1208
551.500;1210
551.563;1218
551.625;1210
551.688;1220
551.750;1223
551.813;1220
551.875;1220
551.938;1210
552.000;1220
552.063;1225
552.125;1213
552.188;1218
552.250;1218
552.313;1225
552.375;1223
552.438;1218
552.500;1220
552.563;1208
552.625;1213
552.688;1223
552.750;1213
552.813;1213
552.875;1223
552.938;1225
553.000;1220
553.063;1215
553.125;1218
553.188;1225
553.250;1225
553.313;1208
553.375;1220
553.438;1225
553.500;1223
553.563;1218
553.625;1210
553.688;1215
553.750;1210
553.813;1218
553.875;1210
553.938;1206
554.000;1208
554.063;1218
554.125;1225
554.188;1218
554.250;1218
554.313;1213
554.375;1213
554.438;1210
554.500;1218
554.563;1208
554.625;1218
554.688;1215
554.750;1218
554.813;1206
554.875;1210
554.938;1210
555.000;1215
555.063;1218
555.125;1223
555.188;1213
555.250;1220
555.313;1218
555.375;1220
555.438;1215
555.500;1215
555.563;1215
555.625;1210
555.688;1215
555.750;1223
555.813;1225
555.875;1208
555.938;1218
556.000;1218
556.063;1215
556.125;1220
556.188;1213
556.250;1215
556.313;1218
556.375;1215
556.438;1215
556.500;1213
556.563;1218
556.625;1220
556.688;1220
556.750;1218
556.813;1215
556.875;1213
556.938;1208
557.000;1220
557.063;1220
557.125;1218
557.188;1208
557.250;1203
557.313;1213
557.375;1218
557.438;1208
557.500;1223
557.563;1215
557.625;1213
557.688;1213
557.750;1223
557.813;1215
557.875;1220
557.938;1208
558.000;1203
558.063;1257
558.125;1437
558.188;1540
558.250;1601
558.313;1625
558.375;1640
558.438;1677
558.500;1696
558.563;1721
558.625;1730
558.688;1738
558.750;1748
558.813;1738
558.875;1748
558.938;1745
559.000;1755
559.063;1757
559.125;1757
559.188;1777
559.250;1782
559.313;1804
559.375;1818
559.438;1828
559.500;1826
559.563;1813
559.625;1811
559.688;1809
559.750;1801
559.813;1804
559.875;1811
559.938;1818
560.000;1823
560.063;1831
560.125;1833
560.188;1843
560.250;1840
560.313;1828
560.375;1816
560.438;1806
560.500;1794
560.563;1777
560.625;1777
560.688;1799
560.750;1804
560.813;1835
560.875;1835
560.938;1853
561.000;1860
561.063;1870
561.125;1862
561.188;1848
561.250;1828
561.313;1804
561.375;1796
561.438;1789
561.500;1794
561.563;1835
561.625;1833
561.688;1838
561.750;1850
561.813;1855
561.875;1870
561.938;1865
562.000;1867
562.063;1862
562.125;1855
562.188;1853
562.250;1850
562.313;1855
562.375;1862
562.438;1865
562.500;1865
562.563;1872
562.625;1892
562.688;1887
562.750;1877
562.813;1882
562.875;1887
562.938;1879
563.000;1892
563.063;1889
563.125;1889
563.188;1901
563.250;1896
563.313;1899
563.375;1894
563.438;1892
563.500;1889
563.563;1882
563.625;1882
563.688;1892
563.750;1899
563.813;1899
563.875;1896
563.938;1904
564.000;1899
564.063;1901
564.125;1916
564.188;1906
564.250;1909
564.313;1906
564.375;1887
564.438;1889
564.500;1889
564.563;1892
564.625;1899
564.688;1906
564.750;1911
564.813;1921
564.875;1918
564.938;1911
565.000;1914
565.063;1906
565.125;1909
565.188;1892
565.250;1899
565.313;1887
565.375;1884
565.438;1889
565.500;1884
565.563;1892
565.625;1894
565.688;1887
565.750;1892
565.813;1855
565.875;1799
565.938;1733
566.000;1577
566.063;1408
566.125;1303
566.188;1279
566.250;1264
566.313;1274
566.375;1269
566.438;1271
566.500;1276
566.563;1271
566.625;1271
566.688;1274
566.750;1274
566.813;1271
566.875;1271
566.938;1276
567.000;1271
567.063;1276
567.125;1284
567.188;1291
567.250;1293
567.313;1274
567.375;1281
567.438;1284
567.500;1284
567.563;1276
567.625;1279
567.688;1279
567.750;1281
567.813;1279
567.875;1286
567.938;1291
568.000;1279
568.063;1289
568.125;1291
568.188;1286
568.250;1293
568.313;1286
568.375;1281
568.438;1276
568.500;1286
568.563;1276
568.625;1281
568.688;1296
568.750;1284
568.813;1293
568.875;1284
568.938;1289
569.000;1296
569.063;1301
569.125;1298
569.188;1286
569.250;1289
569.313;1289
569.375;1286
569.438;1284
569.500;1281
569.563;1286
569.625;1291
569.688;1286
569.750;1281
569.813;1276
569.875;1264
569.938;1252
570.000;1230
570.063;1218
570.125;1206
570.188;1218
570.250;1218
570.313;1201
570.375;1215
570.438;1206
570.500;1218
570.563;1213
570.625;1225
570.688;1215
570.750;1218
570.813;1220
570.875;1215
570.938;1218
571.000;1206
571.063;1215
571.125;1225
571.188;1228
571.250;1218
571.313;1210
571.375;1208
571.438;1213
571.500;1210
571.563;1218
571.625;1218
571.688;1218
571.750;1215
571.813;1208
571.875;1215
571.938;1215
572.000;1213
572.063;1215
572.125;1206
572.188;1213
572.250;1218
572.313;1208
572.375;1210
572.438;1220
572.500;1215
572.563;1220
572.625;1210
572.688;1218
572.750;1213
572.813;1206
572.875;1218
572.938;1218
573.000;1218
573.063;1220
573.125;1208
573.188;1225
573.250;1218
573.313;1210
573.375;1210
573.438;1206
573.500;1203
573.563;1213
573.625;1208
573.688;1213
573.750;1201
573.813;1210
573.875;1208
573.938;1218
574.000;1213
574.063;1213
574.125;1203
574.188;1213
574.250;1215
574.313;1220
574.375;1210
574.438;1210
574.500;1218
574.563;1218
574.625;1206
574.688;1223
574.750;1220
574.813;1218
574.875;1206
574.938;1206
575.000;1215
575.063;1213
575.125;1223
575.188;1230
575.250;1245
575.313;1230
575.375;1225
575.438;1225
575.500;1215
575.563;1213
575.625;1218
575.688;1215
575.750;1210
575.813;1215
575.875;1215
575.938;1230
576.000;1240
576.063;1250
576.125;1247
576.188;1242
576.250;1225
576.313;1208
576.375;1220
576.438;1215
576.500;1218
576.563;1218
576.625;1208
576.688;1218
576.750;1220
576.813;1210
576.875;1206
576.938;1220
577.000;1213
577.063;1218
577.125;1225
577.188;1218
577.250;1218
577.313;1228
577.375;1208
577.438;1225
577.500;1220
577.563;1210
577.625;1223
577.688;1208
577.750;1218
577.813;1218
577.875;1225
577.938;1223
578.000;1218
578.063;1218
578.125;1232
578.188;1230
578.250;1230
578.313;1240
578.375;1223
578.438;1237
578.500;1250
578.563;1237
578.625;1252
578.688;1254
578.750;1245
578.813;1247
578.875;1254
578.938;1245
579.000;1242
579.063;1257
579.125;1269
579.188;1264
579.250;1274
579.313;1279
579.375;1279
579.438;1271
579.500;1267
579.563;1286
579.625;1267
579.688;1274
579.750;1267
579.813;1269
579.875;1274
579.938;1284
580.000;1286
580.063;1281
580.125;1284
580.188;1289
580.250;1264
580.313;1267
580.375;1262
580.438;1242
580.500;1257
580.563;1252
580.625;1259
580.688;1279
580.750;1279
580.813;1291
580.875;1279
580.938;1291
581.000;1293
581.063;1276
581.125;1271
581.188;1269
581.250;1269
581.313;1264
581.375;1262
581.438;1271
581.500;1264
581.563;1284
581.625;1291
581.688;1293
581.750;1291
581.813;1298
581.875;1293
581.938;1306
582.000;1306
582.063;1291
582.125;1293
582.188;1291
582.250;1298
582.313;1303
582.375;1311
582.438;1308
582.500;1311
582.563;1311
582.625;1301
582.688;1308
582.750;1318
582.813;1318
582.875;1315
582.938;1320
583.000;1318
583.063;1320
583.125;1323
583.188;1333
583.250;1323
583.313;1308
583.375;1313
583.438;1311
583.500;1318
583.563;1311
583.625;1308
583.688;1318
583.750;1315
583.813;1308
583.875;1323
583.938;1318
584.000;1325
584.063;1308
584.125;1318
584.188;1311
584.250;1306
584.313;1306
584.375;1318
584.438;1306
584.500;1320
584.563;1325
584.625;1333
584.688;1325
584.750;1335
584.813;1328
584.875;1325
584.938;1320
585.000;1313
585.063;1323
585.125;1313
585.188;1313
585.250;1308
585.313;1311
585.375;1296
585.438;1303
585.500;1320
585.563;1320
585.625;1318
585.688;1291
585.750;1271
585.813;1257
585.875;1225
585.938;1223
586.000;1208
586.063;1215
586.125;1220
586.188;1215
586.250;1210
586.313;1218
586.375;1220
586.438;1228
586.500;1213
586.563;1215
586.625;1220
586.688;1213
586.750;1213
586.813;1223
586.875;1223
586.938;1223
587.000;1223
587.063;1218
587.125;1225
587.188;1223
587.250;1215
587.313;1220
587.375;1223
587.438;1223
587.500;1208
587.563;1223
587.625;1218
587.688;1218
587.750;1230
587.813;1230
587.875;1220
587.938;1223
588.000;1213
588.063;1215
588.125;1218
588.188;1220
588.250;1213
588.313;1215
588.375;1218
588.438;1213
588.500;1228
588.563;1218
588.625;1215
588.688;1201
588.750;1215
588.813;1228
588.875;1223
588.938;1210
589.000;1223
589.063;1225
589.125;1232
589.188;1225
589.250;1230
589.313;1225
589.375;1228
589.438;1232
589.500;1232
589.563;1237
589.625;1232
589.688;1232
589.750;1240
589.813;1232
589.875;1223
589.938;1225
590.000;1232
590.063;1232
590.125;1230
590.188;1230
590.250;1232
590.313;1230
590.375;1230
590.438;1225
590.500;1237
590.563;1232
590.625;1232
590.688;1228
590.750;1235
590.813;1225
590.875;1232
590.938;1228
591.000;1232
591.063;1232
591.125;1242
591.188;1230
591.250;1225
591.313;1228
591.375;1223
591.438;1240
591.500;1230
591.563;1228
591.625;1232
591.688;1230
591.750;1237
591.813;1225
591.875;1232
591.938;1237
592.000;1232
592.063;1235
592.125;1235
592.188;1230
592.250;1223
592.313;1230
592.375;1237
592.438;1228
592.500;1235
592.563;1235
592.625;1225
592.688;1230
592.750;1225
592.813;1223
592.875;1237
592.938;1218
593.000;1228
593.063;1230
593.125;1220
593.188;1235
593.250;1228
593.313;1228
593.375;1230
593.438;1210
593.500;1218
593.563;1228
593.625;1223
593.688;1208
593.750;1210
593.813;1218
593.875;1225
593.938;1220
594.000;1228
594.063;1225
594.125;1213
594.188;1210
594.250;1213
594.313;1220
594.375;1215
594.438;1218
594.500;1223
594.563;1218
594.625;1223
594.688;1210
594.750;1220
594.813;1213
594.875;1215
594.938;1213
595.000;1220
595.063;1203
595.125;1220
595.188;1215
595.250;1215
595.313;1206
595.375;1213
595.438;1215
595.500;1220
595.563;1215
595.625;1208
595.688;1218
595.750;1206
595.813;1220
595.875;1220
595.938;1210
596.000;1210
596.063;1225
596.125;1210
596.188;1215
596.250;1225
596.313;1220
596.375;1223
596.438;1215
596.500;1213
596.563;1206
596.625;1220
596.688;1218
596.750;1220
596.813;1225
596.875;1210
596.938;1220
597.000;1218
597.063;1223
597.125;1225
597.188;1215
597.250;1218
597.313;1223
597.375;1215
597.438;1218
597.500;1228
597.563;1232
597.625;1228
597.688;1228
597.750;1220
597.813;1223
597.875;1228
597.938;1223
598.000;1230
598.063;1220
598.125;1230
598.188;1225
598.250;1220
598.313;1223
598.375;1228
598.438;1230
598.500;1220
598.563;1237
598.625;1232
598.688;1230
598.750;1230
598.813;1225
598.875;1235
598.938;1230
599.000;1223
599.063;1235
599.125;1235
599.188;1225
599.250;1235
599.313;1232
599.375;1228
599.438;1232
599.500;1240
599.563;1240
599.625;1230
599.688;1230
599.750;1237
599.813;1237
599.875;1237
599.938;1237
600.000;1230
600.063;1230
600.125;1237
600.188;1218
600.250;1228
600.313;1228
600.375;1228
600.438;1218
600.500;1228
600.563;1230
600.625;1237
600.688;1232
600.750;1230
600.813;1225
600.875;1228
600.938;1240
601.000;1235
601.063;1228
601.125;1232
601.188;1230
601.250;1225
601.313;1247
601.375;1225
601.438;1223
601.500;1237
601.563;1237
601.625;1230
601.688;1240
601.750;1242
601.813;1247
601.875;1228
601.938;1223
602.000;1230
602.063;1237
602.125;1232
602.188;1230
602.250;1225
602.313;1230
602.375;1237
602.438;1247
602.500;1242
602.563;1242
602.625;1235
602.688;1237
602.750;1228
602.813;1235
602.875;1230
602.938;1228
603.000;1245
603.063;1245
603.125;1242
603.188;1245
603.250;1232
603.313;1254
603.375;1240
603.438;1232
603.500;1250
603.563;1257
603.625;1247
603.688;1250
603.750;1245
603.813;1240
603.875;1237
603.938;1259
604.000;1242
604.063;1250
604.125;1250
604.188;1242
604.250;1242
604.313;1247
604.375;1252
604.438;1240
604.500;1230
604.563;1245
604.625;1252
604.688;1242
604.750;1230
604.813;1245
604.875;1252
604.938;1242
605.000;1252
605.063;1247
605.125;1242
605.188;1240
605.250;1240
605.313;1245
605.375;1250
605.438;1254
605.500;1250
605.563;1259
605.625;1252
605.688;1232
605.750;1230
605.813;1242
605.875;1228
605.938;1235
606.000;1232
606.063;1230
606.125;1237
606.188;1223
606.250;1223
606.313;1237
606.375;1237
606.438;1235
606.500;1220
606.563;1235
606.625;1230
606.688;1240
606.750;1242
606.813;1250
606.875;1232
606.938;1237
607.000;1237
607.063;1232
607.125;1240
607.188;1230
607.250;1237
607.313;1232
607.375;1218
607.438;1230
607.500;1240
607.563;1223
607.625;1213
607.688;1220
607.750;1228
607.813;1218
607.875;1218
607.938;1210
608.000;1213
608.063;1223
608.125;1213
608.188;1223
608.250;1225
608.313;1218
608.375;1220
608.438;1210
608.500;1213
608.563;1220
608.625;1210
608.688;1215
608.750;1218
608.813;1213
608.875;1225
608.938;1220
609.000;1218
609.063;1213
609.125;1215
609.188;1218
609.250;1225
609.313;1215
609.375;1210
609.438;1218
609.500;1223
609.563;1218
609.625;1218
609.688;1220
609.750;1218
609.813;1218
609.875;1213
609.938;1215
610.000;1220
610.063;1210
610.125;1210
610.188;1218
610.250;1215
610.313;1218
610.375;1210
610.438;1218
610.500;1218
610.563;1235
610.625;1208
610.688;1218
610.750;1225
610.813;1218
610.875;1220
610.938;1220
611.000;1220
611.063;1210
611.125;1230
611.188;1215
611.250;1220
611.313;1220
611.375;1218
611.438;1218
611.500;1223
611.563;1228
611.625;1230
611.688;1213
611.750;1230
611.813;1215
611.875;1215
611.938;1223
612.000;1218
612.063;1223
612.125;1218
612.188;1215
612.250;1220
612.313;1218
612.375;1228
612.438;1228
612.500;1220
612.563;1232
612.625;1223
612.688;1228
612.750;1232
612.813;1225
612.875;1230
612.938;1223
613.000;1218
613.063;1215
613.125;1218
613.188;1210
613.250;1228
613.313;1228
613.375;1215
613.438;1215
613.500;1218
613.563;1215
613.625;1232
613.688;1220
613.750;1223
613.813;1225
613.875;1225
613.938;1230
614.000;1223
614.063;1228
614.125;1235
614.188;1220
614.250;1215
614.313;1220
614.375;1215
614.438;1228
614.500;1228
614.563;1230
614.625;1223
614.688;1220
614.750;1235
614.813;1237
614.875;1230
614.938;1220
615.000;1210
615.063;1225
615.125;1223
615.188;1220
615.250;1213
615.313;1220
615.375;1232
615.438;1228
615.500;1230
615.563;1230
615.625;1225
615.688;1230
615.750;1228
615.813;1230
615.875;1220
615.938;1225
616.000;1228
616.063;1215
616.125;1235
616.188;1237
616.250;1223
616.313;1215
616.375;1225
616.438;1223
616.500;1228
616.563;1228
616.625;1225
616.688;1225
616.750;1218
616.813;1230
616.875;1228
616.938;1228
617.000;1228
617.063;1223
617.125;1220
617.188;1225
617.250;1223
617.313;1230
617.375;1225
617.438;1230
617.500;1230
617.563;1220
617.625;1225
617.688;1220
617.750;1225
617.813;1215
617.875;1218
617.938;1220
618.000;1218
618.063;1220
618.125;1210
618.188;1225
618.250;1215
618.313;1225
618.375;1215
618.438;1220
618.500;1210
618.563;1225
618.625;1225
618.688;1228
618.750;1223
618.813;1220
618.875;1213
618.938;1218
619.000;1230
619.063;1230
619.125;1228
619.188;1213
619.250;1215
619.313;1228
619.375;1228
619.438;1223
619.500;1220
619.563;1220
619.625;1218
619.688;1225
619.750;1215
619.813;1213
619.875;1223
619.938;1218
620.000;1223
620.063;1218
620.125;1220
620.188;1218
620.250;1215
620.313;1220
620.375;1230
620.438;1210
620.500;1213
620.563;1230
620.625;1225
620.688;1215
620.750;1225
620.813;1220
620.875;1206
620.938;1220
621.000;1210
621.063;1218
621.125;1210
621.188;1210
621.250;1220
621.313;1215
621.375;1218
621.438;1218
621.500;1228
621.563;1228
621.625;1225
621.688;1225
621.750;1220
621.813;1230
621.875;1228
621.938;1220
622.000;1218
622.063;1220
622.125;1223
622.188;1223
622.250;1230
622.313;1218
622.375;1220
622.438;1223
622.500;1225
622.563;1220
622.625;1235
622.688;1225
622.750;1225
622.813;1228
622.875;1225
622.938;1232
623.000;1230
623.063;1228
623.125;1225
623.188;1223
623.250;1220
623.313;1228
623.375;1215
623.438;1225
623.500;1213
623.563;1225
623.625;1215
623.688;1228
623.750;1220
623.813;1220
623.875;1223
623.938;1223
624.000;1235
624.063;1230
624.125;1232
624.188;1218
624.250;1223
624.313;1230
624.375;1218
624.438;1218
624.500;1223
624.563;1208
624.625;1220
624.688;1232
624.750;1230
624.813;1223
624.875;1220
624.938;1215
625.000;1220
625.063;1225
625.125;1230
625.188;1218
625.250;1223
625.313;1228
625.375;1223
625.438;1223
625.500;1223
625.563;1218
625.625;1215
625.688;1208
625.750;1218
625.813;1218
625.875;1206
625.938;1215
626.000;1215
626.063;1223
626.125;1220
626.188;1220
626.250;1213
626.313;1225
626.375;1218
626.438;1213
626.500;1220
626.563;1215
626.625;1210
626.688;1223
626.750;1213
626.813;1206
626.875;1210
626.938;1213
627.000;1213
627.063;1210
627.125;1206
627.188;1210
627.250;1210
627.313;1215
627.375;1210
627.438;1215
627.500;1210
627.563;1220
627.625;1223
627.688;1210
627.750;1223
627.813;1225
627.875;1220
627.938;1230
628.000;1225
628.063;1225
628.125;1218
628.188;1220
628.250;1213
628.313;1210
628.375;1215
628.438;1223
628.500;1215
628.563;1220
628.625;1210
628.688;1225
628.750;1225
628.813;1237
628.875;1223
628.938;1220
629.000;1228
629.063;1228
629.125;1225
629.188;1223
629.250;1228
629.313;1220
629.375;1228
629.438;1230
629.500;1230
629.563;1232
629.625;1228
629.688;1228
629.750;1220
629.813;1228
629.875;1213
629.938;1225
630.000;1220
630.063;1218
630.125;1235
630.188;1220
630.250;1218
630.313;1213
630.375;1208
630.438;1218
630.500;1215
630.563;1220
630.625;1220
630.688;1218
630.750;1218
630.813;1230
630.875;1220
630.938;1215
631.000;1215
631.063;1213
631.125;1215
631.188;1228
631.250;1223
631.313;1228
631.375;1223
631.438;1225
631.500;1220
631.563;1228
631.625;1232
631.688;1220
631.750;1215
631.813;1215
631.875;1220
631.938;1223
632.000;1220
632.063;1213
632.125;1230
632.188;1218
632.250;1223
632.313;1223
632.375;1213
632.438;1218
632.500;1210
632.563;1215
632.625;1220
632.688;1213
632.750;1218
632.813;1210
632.875;1215
632.938;1215
633.000;1215
633.063;1215
633.125;1213
633.188;1208
633.250;1220
633.313;1215
633.375;1230
633.438;1232
633.500;1247
633.563;1232
633.625;1240
633.688;1240
633.750;1240
633.813;1235
633.875;1237
633.938;1237
634.000;1237
634.063;1225
634.125;1230
634.188;1223
634.250;1232
634.313;1245
634.375;1230
634.438;1247
634.500;1237
634.563;1250
634.625;1252
634.688;1242
634.750;1247
634.813;1254
634.875;1235
634.938;1242
635.000;1240
635.063;1250
635.125;1240
635.188;1250
635.250;1247
635.313;1245
635.375;1250
635.438;1230
635.500;1240
635.563;1247
635.625;1250
635.688;1250
635.750;1245
635.813;1240
635.875;1250
635.938;1247
636.000;1250
636.063;1240
636.125;1237
636.188;1252
636.250;1247
636.313;1240
636.375;1254
636.438;1252
636.500;1257
636.563;1259
636.625;1245
636.688;1247
636.750;1240
636.813;1242
636.875;1257
636.938;1237
637.000;1247
637.063;1242
637.125;1247
637.188;1247
637.250;1247
637.313;1247
637.375;1242
637.438;1247
637.500;1230
637.563;1228
637.625;1228
637.688;1225
637.750;1223
637.813;1237
637.875;1240
637.938;1237
638.000;1230
638.063;1228
638.125;1232
638.188;1230
638.250;1218
638.313;1225
638.375;1220
638.438;1232
638.500;1230
638.563;1225
638.625;1228
638.688;1232
638.750;1228
638.813;1230
638.875;1232
638.938;1228
639.000;1225
639.063;1220
639.125;1223
639.188;1215
639.250;1225
639.313;1225
639.375;1220
639.438;1213
639.500;1220
639.563;1225
639.625;1210
639.688;1220
639.750;1223
639.813;1213
639.875;1228
639.938;1240
640.000;1230
640.063;1223
640.125;1215
640.188;1213
640.250;1218
640.313;1232
640.375;1225
640.438;1218
640.500;1223
640.563;1223
640.625;1225
640.688;1235
640.750;1225
640.813;1220
640.875;1218
640.938;1225
641.000;1230
641.063;1223
641.125;1215
641.188;1230
641.250;1237
641.313;1223
641.375;1228
641.438;1228
641.500;1228
641.563;1223
641.625;1230
641.688;1228
641.750;1237
641.813;1237
641.875;1245
641.938;1247
642.000;1242
642.063;1235
642.125;1237
642.188;1245
642.250;1237
642.313;1267
642.375;1276
642.438;1254
642.500;1254
642.563;1232
642.625;1232
642.688;1250
642.750;1250
642.813;1237
642.875;1240
642.938;1237
643.000;1247
643.063;1242
643.125;1225
643.188;1235
643.250;1237
643.313;1242
643.375;1237
643.438;1252
643.500;1240
643.563;1247
643.625;1230
643.688;1237
643.750;1245
643.813;1232
643.875;1240
643.938;1230
644.000;1237
644.063;1237
644.125;1237
644.188;1232
644.250;1237
644.313;1232
644.375;1242
644.438;1237
644.500;1240
644.563;1250
644.625;1237
644.688;1235
644.750;1252
644.813;1228
644.875;1237
644.938;1240
645.000;1240
645.063;1225
645.125;1245
645.188;1240
645.250;1245
645.313;1237
645.375;1232
645.438;1240
645.500;1230
645.563;1240
645.625;1235
645.688;1237
645.750;1242
645.813;1225
645.875;1247
645.938;1252
646.000;1240
646.063;1230
646.125;1237
646.188;1230
646.250;1240
646.313;1225
646.375;1232
646.438;1232
646.500;1240
646.563;1237
646.625;1225
646.688;1218
646.750;1228
646.813;1230
646.875;1232
646.938;1240
647.000;1230
647.063;1230
647.125;1237
647.188;1242
647.250;1259
647.313;1279
647.375;1308
647.438;1279
647.500;1262
647.563;1286
647.625;1274
647.688;1254
647.750;1252
647.813;1250
647.875;1267
647.938;1274
648.000;1264
648.063;1259
648.125;1245
648.188;1254
648.250;1262
648.313;1259
648.375;1254
648.438;1259
648.500;1262
648.563;1259
648.625;1242
648.688;1252
648.750;1262
648.813;1267
648.875;1250
648.938;1254
649.000;1254
649.063;1245
649.125;1257
649.188;1257
649.250;1259
649.313;1257
649.375;1237
649.438;1264
649.500;1247
649.563;1254
649.625;1259
649.688;1259
649.750;1267
649.813;1245
649.875;1247
649.938;1242
650.000;1240
650.063;1247
650.125;1245
650.188;1240
650.250;1245
650.313;1254
650.375;1254
650.438;1242
650.500;1250
650.563;1252
650.625;1245
650.688;1242
650.750;1250
650.813;1252
650.875;1259
650.938;1242
651.000;1237
651.063;1250
651.125;1252
651.188;1230
651.250;1230
651.313;1245
651.375;1252
651.438;1237
651.500;1254
651.563;1240
651.625;1262
651.688;1254
651.750;1259
651.813;1257
651.875;1237
651.938;1240
652.000;1240
652.063;1230
652.125;1230
652.188;1225
652.250;1220
652.313;1225
652.375;1220
652.438;1228
652.500;1218
652.563;1228
652.625;1213
652.688;1210
652.750;1218
652.813;1225
652.875;1232
652.938;1218
653.000;1237
653.063;1225
653.125;1230
653.188;1237
653.250;1245
653.313;1264
653.375;1247
653.438;1274
653.500;1264
653.563;1267
653.625;1262
653.688;1264
653.750;1262
653.813;1269
653.875;1257
653.938;1250
654.000;1257
654.063;1267
654.125;1257
654.188;1274
654.250;1274
654.313;1279
654.375;1271
654.438;1269
654.500;1279
654.563;1281
654.625;1264
654.688;1276
654.750;1284
654.813;1262
654.875;1281
654.938;1271
655.000;1259
655.063;1274
655.125;1274
655.188;1259
655.250;1269
655.313;1252
655.375;1264
655.438;1284
655.500;1259
655.563;1274
655.625;1274
655.688;1259
655.750;1274
655.813;1289
655.875;1284
655.938;1291
656.000;1269
656.063;1279
656.125;1281
656.188;1274
656.250;1279
656.313;1289
656.375;1308
656.438;1289
656.500;1274
656.563;1276
656.625;1281
656.688;1274
656.750;1289
656.813;1286
656.875;1279
656.938;1264
657.000;1289
657.063;1259
657.125;1298
657.188;1274
657.250;1274
657.313;1262
657.375;1267
657.438;1271
657.500;1254
657.563;1259
657.625;1262
657.688;1254
657.750;1235
657.813;1240
657.875;1242
657.938;1250
658.000;1220
658.063;1237
658.125;1230
658.188;1228
658.250;1230
658.313;1230
658.375;1252
658.438;1228
658.500;1223
658.563;1232
658.625;1220
658.688;1228
658.750;1232
658.813;1228
658.875;1230
658.938;1232
659.000;1223
659.063;1223
659.125;1237
659.188;1230
659.250;1225
659.313;1230
659.375;1230
659.438;1225
659.500;1225
659.563;1225
659.625;1225
659.688;1240
659.750;1232
659.813;1228
659.875;1228
659.938;1228
660.000;1223
660.063;1228
660.125;1232
660.188;1240
660.250;1242
660.313;1252
660.375;1254
660.438;1262
660.500;1254
660.563;1252
660.625;1252
660.688;1250
660.750;1242
660.813;1250
660.875;1259
660.938;1257
661.000;1262
661.063;1254
661.125;1252
661.188;1267
661.250;1286
661.313;1289
661.375;1308
661.438;1286
661.500;1289
661.563;1298
661.625;1293
661.688;1279
661.750;1286
661.813;1296
661.875;1323
661.938;1323
662.000;1335
662.063;1354
662.125;1362
662.188;1381
662.250;1384
662.313;1391
662.375;1381
662.438;1381
662.500;1296
662.563;1376
662.625;1374
662.688;1357
662.750;1347
662.813;1325
662.875;1291
662.938;1271
663.000;1262
663.063;1257
663.125;1267
663.188;1281
663.250;1286
663.313;1281
663.375;1276
663.438;1293
663.500;1293
663.563;1281
663.625;1289
663.688;1289
663.750;1284
663.813;1291
663.875;1291
663.938;1284
664.000;1284
664.063;1284
664.125;1269
664.188;1264
664.250;1271
664.313;1262
664.375;1250
664.438;1276
664.500;1242
664.563;1247
664.625;1247
664.688;1247
664.750;1235
664.813;1250
664.875;1259
664.938;1259
665.000;1254
665.063;1269
665.125;1250
665.188;1262
665.250;1242
665.313;1262
665.375;1242
665.438;1252
665.500;1242
665.563;1242
665.625;1240
665.688;1252
665.750;1267
665.813;1274
665.875;1254
665.938;1242
666.000;1250
666.063;1235
666.125;1237
666.188;1235
666.250;1237
666.313;1218
666.375;1228
666.438;1213
666.500;1225
666.563;1218
666.625;1230
666.688;1235
666.750;1240
666.813;1218
666.875;1237
666.938;1228
667.000;1250
667.063;1286
667.125;1311
667.188;1325
667.250;1345
667.313;1335
667.375;1350
667.438;1359
667.500;1362
667.563;1379
667.625;1406
667.688;1408
667.750;1411
667.813;1430
667.875;1423
667.938;1401
668.000;1389
668.063;1396
668.125;1416
668.188;1401
668.250;1381
668.313;1379
668.375;1367
668.438;1381
668.500;1381
668.563;1374
668.625;1394
668.688;1413
668.750;1381
668.813;1430
668.875;1384
668.938;1406
669.000;1413
669.063;1420
669.125;1423
669.188;1411
669.250;1411
669.313;1413
669.375;1398
669.438;1394
669.500;1401
669.563;1406
669.625;1394
669.688;1406
669.750;1394
669.813;1389
669.875;1389
669.938;1384
670.000;1352
670.063;1325
670.125;1357
670.188;1357
670.250;1359
670.313;1350
670.375;1350
670.438;1313
670.500;1362
670.563;1394
670.625;1384
670.688;1384
670.750;1376
670.813;1376
670.875;1381
670.938;1372
671.000;1350
671.063;1386
671.125;1376
671.188;1384
671.250;1337
671.313;1376
671.375;1357
671.438;1389
671.500;1352
671.563;1386
671.625;1384
671.688;1289
671.750;1372
671.813;1372
671.875;1367
671.938;1367
672.000;1350
672.063;1362
672.125;1345
672.188;1306
672.250;1284
672.313;1269
672.375;1254
672.438;1250
672.500;1245
672.563;1242
672.625;1250
672.688;1245
672.750;1245
672.813;1232
672.875;1252
672.938;1252
673.000;1301
673.063;1357
673.125;1455
673.188;1496
673.250;1523
673.313;1523
673.375;1550
673.438;1535
673.500;1550
673.563;1486
673.625;1523
673.688;1518
673.750;1506
673.813;1552
673.875;1545
673.938;1499
674.000;1506
674.063;1530
674.125;1474
674.188;1533
674.250;1513
674.313;1520
674.375;1530
674.438;1555
674.500;1518
674.563;1557
674.625;1562
674.688;1486
674.750;1552
674.813;1552
674.875;1555
674.938;1523
675.000;1528
675.063;1528
675.125;1550
675.188;1555
675.250;1542
675.313;1538
675.375;1486
675.438;1545
675.500;1538
675.563;1562
675.625;1533
675.688;1530
675.750;1555
675.813;1540
675.875;1528
675.938;1533
676.000;1542
676.063;1496
676.125;1560
676.188;1557
676.250;1560
676.313;1552
676.375;1513
676.438;1552
676.500;1542
676.563;1528
676.625;1540
676.688;1567
676.750;1530
676.813;1555
676.875;1557
676.938;1542
677.000;1513
677.063;1533
677.125;1552
677.188;1574
677.250;1418
677.313;1535
677.375;1542
677.438;1525
677.500;1513
677.563;1518
677.625;1503
677.688;1450
677.750;1401
677.813;1376
677.875;1364
677.938;1352
678.000;1347
678.063;1354
678.125;1350
678.188;1354
678.250;1347
678.313;1335
678.375;1308
678.438;1303
678.500;1301
678.563;1303
678.625;1311
678.688;1281
678.750;1286
678.813;1262
678.875;1281
678.938;1286
679.000;1274
679.063;1259
679.125;1262
679.188;1262
679.250;1259
679.313;1264
679.375;1267
679.438;1264
679.500;1257
679.563;1264
679.625;1276
679.688;1271
679.750;1286
679.813;1291
679.875;1281
679.938;1291
680.000;1281
680.063;1274
680.125;1269
680.188;1271
680.250;1279
680.313;1274
680.375;1291
680.438;1291
680.500;1284
680.563;1286
680.625;1279
680.688;1276
680.750;1281
680.813;1289
680.875;1276
680.938;1286
681.000;1289
681.063;1335
681.125;1325
681.188;1333
681.250;1345
681.313;1362
681.375;1364
681.438;1369
681.500;1364
681.563;1381
681.625;1396
681.688;1423
681.750;1430
681.813;1420
681.875;1433
681.938;1423
682.000;1418
682.063;1406
682.125;1437
682.188;1428
682.250;1437
682.313;1403
682.375;1418
682.438;1403
682.500;1413
682.563;1398
682.625;1433
682.688;1467
682.750;1491
682.813;1481
682.875;1464
682.938;1457
683.000;1474
683.063;1489
683.125;1486
683.188;1491
683.250;1496
683.313;1481
683.375;1469
683.438;1477
683.500;1516
683.563;1481
683.625;1477
683.688;1467
683.750;1477
683.813;1450
683.875;1440
683.938;1423
684.000;1408
684.063;1425
684.125;1403
684.188;1411
684.250;1381
684.313;1381
684.375;1386
684.438;1374
684.500;1374
684.563;1376
684.625;1376
684.688;1394
684.750;1396
684.813;1403
684.875;1420
684.938;1394
685.000;1403
685.063;1416
685.125;1389
685.188;1394
685.250;1394
685.313;1411
685.375;1389
685.438;1406
685.500;1396
685.563;1391
685.625;1335
685.688;1384
685.750;1401
685.813;1384
685.875;1384
685.938;1396
686.000;1384
686.063;1335
686.125;1335
686.188;1345
686.250;1342
686.313;1328
686.375;1320
686.438;1318
686.500;1293
686.563;1323
686.625;1330
686.688;1337
686.750;1337
686.813;1313
686.875;1335
686.938;1333
687.000;1369
687.063;1379
687.125;1450
687.188;1503
687.250;1542
687.313;1550
687.375;1552
687.438;1555
687.500;1569
687.563;1523
687.625;1518
687.688;1572
687.750;1557
687.813;1562
687.875;1530
687.938;1542
688.000;1555
688.063;1547
688.125;1540
688.188;1530
688.250;1530
688.313;1550
688.375;1467
688.438;1450
688.500;1518
688.563;1530
688.625;1545
688.688;1557
688.750;1560
688.813;1528
688.875;1520
688.938;1491
689.000;1501
689.063;1501
689.125;1530
689.188;1525
689.250;1511
689.313;1533
689.375;1530
689.438;1562
689.500;1520
689.563;1547
689.625;1518
689.688;1530
689.750;1557
689.813;1489
689.875;1491
689.938;1523
690.000;1516
690.063;1523
690.125;1569
690.188;1520
690.250;1489
690.313;1501
690.375;1513
690.438;1535
690.500;1530
690.563;1501
690.625;1520
690.688;1513
690.750;1516
690.813;1552
690.875;1459
690.938;1513
691.000;1518
691.063;1525
691.125;1542
691.188;1398
691.250;1499
691.313;1464
691.375;1503
691.438;1535
691.500;1562
691.563;1503
691.625;1464
691.688;1430
691.750;1420
691.813;1359
691.875;1333
691.938;1303
692.000;1301
692.063;1286
692.125;1271
692.188;1279
692.250;1271
692.313;1269
692.375;1252
692.438;1259
692.500;1269
692.563;1264
692.625;1254
692.688;1262
692.750;1274
692.813;1289
692.875;1301
692.938;1333
693.000;1372
693.063;1350
693.125;1394
693.188;1447
693.250;1447
693.313;1452
693.375;1428
693.438;1447
693.500;1450
693.563;1452
693.625;1428
693.688;1440
693.750;1416
693.813;1433
693.875;1445
693.938;1376
694.000;1430
694.063;1423
694.125;1416
694.188;1442
694.250;1450
694.313;1445
694.375;1452
694.438;1389
694.500;1401
694.563;1440
694.625;1416
694.688;1440
694.750;1428
694.813;1425
694.875;1420
694.938;1428
695.000;1430
695.063;1416
695.125;1416
695.188;1420
695.250;1437
695.313;1428
695.375;1435
695.438;1425
695.500;1433
695.563;1433
695.625;1435
695.688;1433
695.750;1437
695.813;1408
695.875;1423
695.938;1418
696.000;1401
696.063;1430
696.125;1408
696.188;1433
696.250;1430
696.313;1452
696.375;1467
696.438;1462
696.500;1455
696.563;1447
696.625;1455
696.688;1459
696.750;1315
696.813;1435
696.875;1425
696.938;1423
697.000;1428
697.063;1442
697.125;1440
697.188;1452
697.250;1401
697.313;1416
697.375;1440
697.438;1401
697.500;1396
697.563;1376
697.625;1323
697.688;1308
697.750;1296
697.813;1298
697.875;1293
697.938;1296
698.000;1289
698.063;1286
698.125;1274
698.188;1271
698.250;1262
698.313;1274
698.375;1267
698.438;1264
698.500;1267
698.563;1267
698.625;1262
698.688;1259
698.750;1264
698.813;1262
698.875;1286
698.938;1286
699.000;1284
699.063;1284
699.125;1284
699.188;1276
699.250;1274
699.313;1271
699.375;1267
699.438;1281
699.500;1257
699.563;1291
699.625;1303
699.688;1320
699.750;1350
699.813;1347
699.875;1354
699.938;1342
700.000;1335
700.063;1357
700.125;1352
700.188;1333
700.250;1354
700.313;1362
700.375;1347
700.438;1325
700.500;1350
700.563;1367
700.625;1362
700.688;1381
700.750;1357
700.813;1386
700.875;1379
700.938;1379
701.000;1345
701.063;1357
701.125;1357
701.188;1374
701.250;1381
701.313;1374
701.375;1333
701.438;1372
701.500;1369
701.563;1386
701.625;1394
701.688;1408
701.750;1396
701.813;1394
701.875;1396
701.938;1396
702.000;1401
702.063;1391
702.125;1376
702.188;1379
702.250;1411
702.313;1315
702.375;1391
702.438;1354
702.500;1394
702.563;1413
702.625;1408
702.688;1386
702.750;1403
702.813;1386
702.875;1391
702.938;1386
703.000;1440
703.063;1394
703.125;1423
703.188;1396
703.250;1420
703.313;1420
703.375;1433
703.438;1418
703.500;1416
703.563;1406
703.625;1416
703.688;1420
703.750;1376
703.813;1394
703.875;1347
703.938;1367
704.000;1325
704.063;1345
704.125;1318
704.188;1315
704.250;1286
704.313;1296
704.375;1279
704.438;1279
704.500;1289
704.563;1296
704.625;1289
704.688;1291
704.750;1289
704.813;1286
704.875;1301
704.938;1298
705.000;1291
705.063;1303
705.125;1284
705.188;1286
705.250;1267
705.313;1289
705.375;1291
705.438;1311
705.500;1298
705.563;1289
705.625;1311
705.688;1335
705.750;1328
705.813;1345
705.875;1333
705.938;1308
706.000;1298
706.063;1308
706.125;1303
706.188;1284
706.250;1274
706.313;1267
706.375;1264
706.438;1284
706.500;1289
706.563;1315
706.625;1340
706.688;1330
706.750;1323
706.813;1328
706.875;1320
706.938;1342
707.000;1367
707.063;1416
707.125;1420
707.188;1477
707.250;1420
707.313;1423
707.375;1416
707.438;1440
707.500;1457
707.563;1425
707.625;1435
707.688;1467
707.750;1450
707.813;1442
707.875;1398
707.938;1428
708.000;1403
708.063;1435
708.125;1420
708.188;1442
708.250;1450
708.313;1418
708.375;1423
708.438;1455
708.500;1479
708.563;1484
708.625;1467
708.688;1477
708.750;1486
708.813;1479
708.875;1494
708.938;1489
709.000;1491
709.063;1472
709.125;1486
709.188;1484
709.250;1511
709.313;1484
709.375;1474
709.438;1467
709.500;1499
709.563;1501
709.625;1484
709.688;1447
709.750;1447
709.813;1425
709.875;1435
709.938;1423
710.000;1425
710.063;1440
710.125;1430
710.188;1435
710.250;1433
710.313;1464
710.375;1428
710.438;1428
710.500;1435
710.563;1445
710.625;1445
710.688;1342
710.750;1413
710.813;1381
710.875;1425
710.938;1437
711.000;1467
711.063;1394
711.125;1425
711.188;1430
711.250;1437
711.313;1423
711.375;1452
711.438;1420
711.500;1416
711.563;1416
711.625;1408
711.688;1394
711.750;1374
711.813;1345
711.875;1289
711.938;1289
712.000;1257
712.063;1259
712.125;1267
712.188;1267
712.250;1257
712.313;1267
712.375;1259
712.438;1250
712.500;1264
712.563;1269
712.625;1274
712.688;1296
712.750;1291
712.813;1328
712.875;1369
712.938;1430
713.000;1474
713.063;1508
713.125;1469
713.188;1474
713.250;1481
713.313;1481
713.375;1464
713.438;1464
713.500;1435
713.563;1472
713.625;1423
713.688;1457
713.750;1442
713.813;1467
713.875;1416
713.938;1484
714.000;1491
714.063;1499
714.125;1511
714.188;1501
714.250;1506
714.313;1489
714.375;1484
714.438;1513
714.500;1506
714.563;1496
714.625;1479
714.688;1481
714.750;1455
714.813;1472
714.875;1484
714.938;1479
715.000;1499
715.063;1467
715.125;1494
715.188;1503
715.250;1513
715.313;1452
715.375;1481
715.438;1479
715.500;1494
715.563;1464
715.625;1464
715.688;1467
715.750;1464
715.813;1491
715.875;1481
715.938;1491
716.000;1477
716.063;1462
716.125;1437
716.188;1477
716.250;1340
716.313;1455
716.375;1445
716.438;1464
716.500;1489
716.563;1499
716.625;1486
716.688;1435
716.750;1430
716.813;1469
716.875;1479
716.938;1479
717.000;1481
717.063;1445
717.125;1425
717.188;1472
717.250;1477
717.313;1464
717.375;1445
717.438;1379
717.500;1340
717.563;1340
717.625;1313
717.688;1296
717.750;1306
717.813;1301
717.875;1291
717.938;1291
718.000;1303
718.063;1286
718.125;1264
718.188;1264
718.250;1269
718.313;1264
718.375;1269
718.438;1271
718.500;1293
718.563;1345
718.625;1381
718.688;1425
718.750;1423
718.813;1420
718.875;1433
718.938;1435
719.000;1430
719.063;1389
719.125;1428
719.188;1420
719.250;1420
719.313;1433
719.375;1418
719.438;1406
719.500;1420
719.563;1425
719.625;1430
719.688;1428
719.750;1420
719.813;1440
719.875;1391
719.938;1411
720.000;1435
720.063;1452
720.125;1442
720.188;1447
720.250;1428
720.313;1423
720.375;1440
720.438;1423
720.500;1420
720.563;1442
720.625;1437
720.688;1459
720.750;1469
720.813;1447
720.875;1464
720.938;1489
721.000;1489
721.063;1499
721.125;1499
721.188;1459
721.250;1423
721.313;1440
721.375;1440
721.438;1457
721.500;1467
721.563;1459
721.625;1469
721.688;1435
721.750;1464
721.813;1398
721.875;1464
721.938;1440
722.000;1464
722.063;1462
722.125;1452
722.188;1452
722.250;1425
722.313;1459
722.375;1464
722.438;1459
722.500;1474
722.563;1472
722.625;1474
722.688;1459
722.750;1464
722.813;1472
722.875;1469
722.938;1457
723.000;1428
723.063;1425
723.125;1398
723.188;1416
723.250;1394
723.313;1396
723.375;1391
723.438;1391
723.500;1364
723.563;1372
723.625;1362
723.688;1362
723.750;1315
723.813;1335
723.875;1325
723.938;1337
724.000;1362
724.063;1330
724.125;1364
724.188;1381
724.250;1369
724.313;1394
724.375;1352
724.438;1345
724.500;1364
724.563;1357
724.625;1320
724.688;1342
724.750;1350
724.813;1374
724.875;1357
724.938;1337
725.000;1364
725.063;1364
725.125;1342
725.188;1335
725.250;1298
725.313;1345
725.375;1367
725.438;1325
725.500;1394
725.563;1430
725.625;1452
725.688;1389
725.750;1408
725.813;1440
725.875;1520
725.938;1525
726.000;1557
726.063;1535
726.125;1472
726.188;1445
726.250;1450
726.313;1499
726.375;1557
726.438;1650
726.500;1677
726.563;1650
726.625;1618
726.688;1530
726.750;1450
726.813;1416
726.875;1455
726.938;1513
727.000;1552
727.063;1564
727.125;1579
727.188;1547
727.250;1542
727.313;1525
727.375;1494
727.438;1525
727.500;1545
727.563;1552
727.625;1562
727.688;1564
727.750;1535
727.813;1542
727.875;1506
727.938;1542
728.000;1530
728.063;1557
728.125;1477
728.188;1513
728.250;1501
728.313;1552
728.375;1538
728.438;1530
728.500;1584
728.563;1518
728.625;1501
728.688;1520
728.750;1557
728.813;1467
728.875;1494
728.938;1542
729.000;1540
729.063;1542
729.125;1562
729.188;1552
729.250;1535
729.313;1523
729.375;1520
729.438;1523
729.500;1525
729.563;1511
729.625;1513
729.688;1530
729.750;1525
729.813;1557
729.875;1508
729.938;1513
730.000;1530
730.063;1542
730.125;1530
730.188;1435
730.250;1491
730.313;1516
730.375;1499
730.438;1501
730.500;1560
730.563;1481
730.625;1477
730.688;1489
730.750;1525
730.813;1511
730.875;1491
730.938;1469
731.000;1533
731.063;1501
731.125;1479
731.188;1525
731.250;1511
731.313;1552
731.375;1645
731.438;1743
731.500;1718
731.563;1674
731.625;1635
731.688;1579
731.750;1469
731.813;1408
731.875;1416
731.938;1398
732.000;1416
732.063;1462
732.125;1425
732.188;1408
732.250;1381
732.313;1394
732.375;1394
732.438;1416
732.500;1447
732.563;1479
732.625;1481
732.688;1457
732.750;1457
732.813;1450
732.875;1447
732.938;1442
733.000;1469
733.063;1474
733.125;1481
733.188;1481
733.250;1481
733.313;1474
733.375;1464
733.438;1425
733.500;1420
733.563;1425
733.625;1408
733.688;1391
733.750;1384
733.813;1376
733.875;1384
733.938;1437
734.000;1416
734.063;1433
734.125;1403
734.188;1411
734.250;1413
734.313;1428
734.375;1384
734.438;1401
734.500;1389
734.563;1413
734.625;1435
734.688;1433
734.750;1430
734.813;1459
734.875;1479
734.938;1499
735.000;1523
735.063;1516
735.125;1472
735.188;1459
735.250;1428
735.313;1413
735.375;1428
735.438;1459
735.500;1416
735.563;1462
735.625;1435
735.688;1440
735.750;1374
735.813;1398
735.875;1401
735.938;1423
736.000;1408
736.063;1401
736.125;1381
736.188;1376
736.250;1340
736.313;1350
736.375;1335
736.438;1342
736.500;1379
736.563;1389
736.625;1384
736.688;1413
736.750;1379
736.813;1391
736.875;1347
736.938;1328
737.000;1345
737.063;1340
737.125;1362
737.188;1352
737.250;1362
737.313;1342
737.375;1345
737.438;1347
737.500;1337
737.563;1318
737.625;1318
737.688;1337
737.750;1318
737.813;1315
737.875;1318
737.938;1318
738.000;1328
738.063;1357
738.125;1359
738.188;1359
738.250;1357
738.313;1367
738.375;1418
738.438;1450
738.500;1469
738.563;1445
738.625;1518
738.688;1486
738.750;1562
738.813;1538
738.875;1545
738.938;1542
739.000;1501
739.063;1518
739.125;1535
739.188;1499
739.250;1618
739.313;1557
739.375;1557
739.438;1555
739.500;1560
739.563;1562
739.625;1540
739.688;1520
739.750;1555
739.813;1555
739.875;1589
739.938;1594
740.000;1589
740.063;1582
740.125;1601
740.188;1579
740.250;1569
740.313;1550
740.375;1604
740.438;1630
740.500;1677
740.563;1679
740.625;1665
740.688;1613
740.750;1589
740.813;1577
740.875;1606
740.938;1608
741.000;1604
741.063;1613
741.125;1572
741.188;1591
741.250;1577
741.313;1560
741.375;1579
741.438;1579
741.500;1574
741.563;1604
741.625;1591
741.688;1582
741.750;1599
741.813;1540
741.875;1564
741.938;1552
742.000;1545
742.063;1540
742.125;1567
742.188;1560
742.250;1591
742.313;1694
742.375;1596
742.438;1560
742.500;1525
742.563;1506
742.625;1542
742.688;1567
742.750;1530
742.813;1542
742.875;1550
742.938;1550
743.000;1511
743.063;1506
743.125;1435
743.188;1450
743.250;1447
743.313;1447
743.375;1411
743.438;1437
743.500;1464
743.563;1467
743.625;1459
743.688;1503
743.750;1423
743.813;1401
743.875;1401
743.938;1384
744.000;1401
744.063;1401
744.125;1372
744.188;1386
744.250;1437
744.313;1499
744.375;1518
744.438;1528
744.500;1489
744.563;1420
744.625;1384
744.688;1418
744.750;1386
744.813;1452
744.875;1467
744.938;1401
745.000;1394
745.063;1420
745.125;1386
745.188;1408
745.250;1406
745.313;1479
745.375;1601
745.438;1726
745.500;1748
745.563;1677
745.625;1643
745.688;1625
745.750;1572
745.813;1538
745.875;1562
745.938;1547
746.000;1557
746.063;1547
746.125;1540
746.188;1560
746.250;1567
746.313;1623
746.375;1682
746.438;1652
746.500;1647
746.563;1682
746.625;1621
746.688;1555
746.750;1599
746.813;1606
746.875;1630
746.938;1694
747.000;1638
747.063;1628
747.125;1655
747.188;1672
747.250;1682
747.313;1728
747.375;1723
747.438;1713
747.500;1718
747.563;1706
747.625;1721
747.688;1567
747.750;1582
747.813;1555
747.875;1564
747.938;1684
748.000;1662
748.063;1621
748.125;1582
748.188;1538
748.250;1508
748.313;1533
748.375;1525
748.438;1525
748.500;1533
748.563;1513
748.625;1542
748.688;1525
748.750;1508
748.813;1501
748.875;1562
748.938;1564
749.000;1611
749.063;1630
749.125;1643
749.188;1618
749.250;1618
749.313;1572
749.375;1552
749.438;1542
749.500;1533
749.563;1516
749.625;1530
749.688;1501
749.750;1606
749.813;1669
749.875;1716
749.938;1721
750.000;1682
750.063;1633
750.125;1552
750.188;1511
750.250;1520
750.313;1520
750.375;1494
750.438;1501
750.500;1489
750.563;1499
750.625;1506
750.688;1491
750.750;1513
750.813;1469
750.875;1452
750.938;1513
751.000;1484
751.063;1469
751.125;1462
751.188;1511
751.250;1567
751.313;1669
751.375;1682
751.438;1608
751.500;1594
751.563;1542
751.625;1501
751.688;1472
751.750;1477
751.813;1440
751.875;1464
751.938;1491
752.000;1503
752.063;1494
752.125;1486
752.188;1481
752.250;1538
752.313;1604
752.375;1633
752.438;1650
752.500;1657
752.563;1669
752.625;1677
752.688;1679
752.750;1677
752.813;1682
752.875;1689
752.938;1696
753.000;1689
753.063;1674
753.125;1689
753.188;1689
753.250;1716
753.313;1662
753.375;1667
753.438;1662
753.500;1633
753.563;1618
753.625;1545
753.688;1525
753.750;1518
753.813;1599
753.875;1579
753.938;1633
754.000;1618
754.063;1672
754.125;1667
754.188;1738
754.250;1635
754.313;1762
754.375;1657
754.438;1772
754.500;1652
754.563;1733
754.625;1657
754.688;1687
754.750;1662
754.813;1701
754.875;1711
754.938;1711
755.000;1682
755.063;1650
755.125;1613
755.188;1586
755.250;1535
755.313;1525
755.375;1538
755.438;1474
755.500;1503
755.563;1459
755.625;1462
755.688;1455
755.750;1496
755.813;1499
755.875;1442
755.938;1459
756.000;1425
756.063;1435
756.125;1457
756.188;1472
756.250;1481
756.313;1484
756.375;1499
756.438;1501
756.500;1520
756.563;1530
756.625;1535
756.688;1545
756.750;1557
756.813;1547
756.875;1552
756.938;1530
757.000;1533
757.063;1535
757.125;1550
757.188;1540
757.250;1542
757.313;1547
757.375;1542
757.438;1533
757.500;1547
757.563;1564
757.625;1552
757.688;1530
757.750;1513
757.813;1506
757.875;1491
757.938;1484
758.000;1506
758.063;1520
758.125;1511
758.188;1545
758.250;1621
758.313;1765
758.375;1845
758.438;1838
758.500;1831
758.563;1899
758.625;1911
758.688;1909
758.750;1906
758.813;1889
758.875;1884
758.938;1899
759.000;1906
759.063;1870
759.125;1862
759.188;1877
759.250;1831
759.313;1813
759.375;1843
759.438;1818
759.500;1896
759.563;1901
759.625;1914
759.688;1909
759.750;1901
759.813;1860
759.875;1892
759.938;1901
760.000;1889
760.063;1904
760.125;1899
760.188;1860
760.250;1875
760.313;1884
760.375;1911
760.438;1904
760.500;1918
760.563;1916
760.625;1904
760.688;1882
760.750;1867
760.813;1782
760.875;1877
760.938;1879
761.000;1892
761.063;1892
761.125;1894
761.188;1870
761.250;1896
761.313;1870
761.375;1838
761.438;1855
761.500;1887
761.563;1877
761.625;1887
761.688;1853
761.750;1884
761.813;1896
761.875;1899
761.938;1862
762.000;1889
762.063;1828
762.125;1877
762.188;1877
762.250;1848
762.313;1865
762.375;1894
762.438;1889
762.500;1877
762.563;1884
762.625;1879
762.688;1835
762.750;1796
762.813;1831
762.875;1801
762.938;1777
763.000;1728
763.063;1679
763.125;1682
763.188;1635
763.250;1643
763.313;1564
763.375;1560
763.438;1542
763.500;1547
763.563;1562
763.625;1572
763.688;1569
763.750;1621
763.813;1665
763.875;1701
763.938;1760
764.000;1679
764.063;1645
764.125;1604
764.188;1633
764.250;1638
764.313;1643
764.375;1665
764.438;1638
764.500;1657
764.563;1672
764.625;1674
764.688;1655
764.750;1647
764.813;1621
764.875;1655
764.938;1635
765.000;1643
765.063;1638
765.125;1647
765.188;1672
765.250;1704
765.313;1708
765.375;1718
765.438;1716
765.500;1713
765.563;1669
765.625;1706
765.688;1713
765.750;1752
765.813;1760
765.875;1760
765.938;1770
766.000;1777
766.063;1750
766.125;1779
766.188;1774
766.250;1777
766.313;1782
766.375;1728
766.438;1765
766.500;1757
766.563;1752
766.625;1767
766.688;1770
766.750;1767
766.813;1772
766.875;1745
766.938;1733
767.000;1733
767.063;1774
767.125;1743
767.188;1745
767.250;1762
767.313;1796
767.375;1799
767.438;1806
767.500;1796
767.563;1794
767.625;1796
767.688;1816
767.750;1787
767.813;1794
767.875;1801
767.938;1791
768.000;1782
768.063;1816
768.125;1809
768.188;1787
768.250;1818
768.313;1818
768.375;1823
768.438;1818
768.500;1779
768.563;1804
768.625;1757
768.688;1804
768.750;1791
768.813;1779
768.875;1794
768.938;1818
769.000;1816
769.063;1809
769.125;1791
769.188;1621
769.250;1770
769.313;1772
769.375;1813
769.438;1811
769.500;1796
769.563;1804
769.625;1770
769.688;1767
769.750;1782
769.813;1774
769.875;1806
769.938;1806
770.000;1806
770.063;1794
770.125;1806
770.188;1784
770.250;1787
770.313;1777
770.375;1740
770.438;1757
770.500;1730
770.563;1767
770.625;1713
770.688;1757
770.750;1765
770.813;1765
770.875;1787
770.938;1777
771.000;1770
771.063;1748
771.125;1791
771.188;1799
771.250;1823
771.313;1809
771.375;1809
771.438;1804
771.500;1823
771.563;1806
771.625;1809
771.688;1794
771.750;1796
771.813;1748
771.875;1791
771.938;1716
772.000;1728
772.063;1726
772.125;1760
772.188;1779
772.250;1787
772.313;1794
772.375;1794
772.438;1743
772.500;1784
772.563;1784
772.625;1777
772.688;1760
772.750;1728
772.813;1755
772.875;1760
772.938;1772
773.000;1762
773.063;1755
773.125;1743
773.188;1755
773.250;1745
773.313;1745
773.375;1721
773.438;1706
773.500;1669
773.563;1696
773.625;1694
773.688;1704
773.750;1701
773.813;1696
773.875;1696
773.938;1682
774.000;1726
774.063;1711
774.125;1691
774.188;1701
774.250;1716
774.313;1726
774.375;1721
774.438;1733
774.500;1704
774.563;1701
774.625;1745
774.688;1733
774.750;1645
774.813;1716
774.875;1726
774.938;1701
775.000;1716
775.063;1699
775.125;1689
775.188;1687
775.250;1618
775.313;1657
775.375;1677
775.438;1638
775.500;1628
775.563;1645
775.625;1674
775.688;1657
775.750;1665
775.813;1599
775.875;1528
775.938;1472
776.000;1413
776.063;1406
776.125;1425
776.188;1420
776.250;1430
776.313;1440
776.375;1459
776.438;1472
776.500;1467
776.563;1469
776.625;1477
776.688;1469
776.750;1481
776.813;1511
776.875;1572
776.938;1608
777.000;1650
777.063;1584
777.125;1545
777.188;1530
777.250;1489
777.313;1479
777.375;1445
777.438;1452
777.500;1467
777.563;1486
777.625;1491
777.688;1462
777.750;1455
777.813;1462
777.875;1452
777.938;1455
778.000;1467
778.063;1479
778.125;1499
778.188;1604
778.250;1735
778.313;1789
778.375;1787
778.438;1806
778.500;1823
778.563;1823
778.625;1816
778.688;1772
778.750;1787
778.813;1765
778.875;1806
778.938;1801
779.000;1777
779.063;1791
779.125;1789
779.188;1806
779.250;1811
779.313;1787
779.375;1826
779.438;1818
779.500;1811
779.563;1826
779.625;1794
779.688;1784
779.750;1777
779.813;1821
779.875;1818
779.938;1806
780.000;1772
780.063;1794
780.125;1806
780.188;1774
780.250;1816
780.313;1728
780.375;1811
780.438;1794
780.500;1811
780.563;1811
780.625;1818
780.688;1818
780.750;1816
780.813;1826
780.875;1813
780.938;1816
781.000;1806
781.063;1794
781.125;1772
781.188;1804
781.250;1816
781.313;1818
781.375;1818
781.438;1804
781.500;1752
781.563;1796
781.625;1782
781.688;1784
781.750;1777
781.813;1770
781.875;1804
781.938;1791
782.000;1823
782.063;1818
782.125;1799
782.188;1811
782.250;1813
782.313;1774
782.375;1791
782.438;1794
782.500;1782
782.563;1770
782.625;1770
782.688;1777
782.750;1755
782.813;1699
782.875;1611
782.938;1599
783.000;1589
783.063;1589
783.125;1511
783.188;1516
783.250;1511
783.313;1501
783.375;1479
783.438;1506
783.500;1491
783.563;1501
783.625;1525
783.688;1579
783.750;1623
783.813;1596
783.875;1591
783.938;1564
784.000;1618
784.063;1591
784.125;1618
784.188;1591
784.250;1635
784.313;1569
784.375;1611
784.438;1589
784.500;1550
784.563;1589
784.625;1582
784.688;1567
784.750;1562
784.813;1577
784.875;1577
784.938;1577
785.000;1567
785.063;1574
785.125;1645
785.188;1699
785.250;1682
785.313;1662
785.375;1677
785.438;1677
785.500;1660
785.563;1647
785.625;1657
785.688;1645
785.750;1684
785.813;1674
785.875;1601
785.938;1677
786.000;1669
786.063;1701
786.125;1718
786.188;1699
786.250;1667
786.313;1684
786.375;1677
786.438;1691
786.500;1689
786.563;1689
786.625;1718
786.688;1706
786.750;1716
786.813;1735
786.875;1706
786.938;1726
787.000;1735
787.063;1735
787.125;1750
787.188;1748
787.250;1765
787.313;1765
787.375;1772
787.438;1782
787.500;1745
787.563;1745
787.625;1726
787.688;1767
787.750;1735
787.813;1745
787.875;1738
787.938;1728
788.000;1672
788.063;1696
788.125;1723
788.188;1679
788.250;1704
788.313;1711
788.375;1699
788.438;1677
788.500;1665
788.563;1708
788.625;1662
788.688;1655
788.750;1699
788.813;1687
788.875;1745
788.938;1745
789.000;1738
789.063;1706
789.125;1713
789.188;1711
789.250;1723
789.313;1711
789.375;1728
789.438;1738
789.500;1701
789.563;1748
789.625;1765
789.688;1760
789.750;1728
789.813;1735
789.875;1708
789.938;1730
790.000;1711
790.063;1667
790.125;1667
790.188;1699
790.250;1674
790.313;1689
790.375;1691
790.438;1640
790.500;1669
790.563;1677
790.625;1672
790.688;1684
790.750;1674
790.813;1672
790.875;1682
790.938;1694
791.000;1679
791.063;1701
791.125;1711
791.188;1718
791.250;1689
791.313;1687
791.375;1713
791.438;1506
791.500;1699
791.563;1682
791.625;1713
791.688;1721
791.750;1735
791.813;1755
791.875;1740
791.938;1745
792.000;1755
792.063;1716
792.125;1733
792.188;1755
792.250;1745
792.313;1757
792.375;1765
792.438;1752
792.500;1740
792.563;1748
792.625;1726
792.688;1716
792.750;1738
792.813;1738
792.875;1730
792.938;1716
793.000;1723
793.063;1755
793.125;1718
793.188;1721
793.250;1704
793.313;1679
793.375;1640
793.438;1630
793.500;1643
793.563;1640
793.625;1662
793.688;1701
793.750;1708
793.813;1706
793.875;1755
793.938;1708
794.000;1694
794.063;1689
794.125;1716
794.188;1699
794.250;1669
794.313;1713
794.375;1684
794.438;1696
794.500;1730
794.563;1730
794.625;1699
794.688;1740
794.750;1689
794.813;1696
794.875;1655
794.938;1638
795.000;1630
795.063;1604
795.125;1604
795.188;1630
795.250;1635
795.313;1635
795.375;1625
795.438;1630
795.500;1623
795.563;1579
795.625;1579
795.688;1538
795.750;1501
795.813;1503
795.875;1486
795.938;1477
796.000;1486
796.063;1496
796.125;1506
796.188;1542
796.250;1540
796.313;1530
796.375;1538
796.438;1552
796.500;1557
796.563;1577
796.625;1582
796.688;1633
796.750;1687
796.813;1767
796.875;1752
796.938;1716
797.000;1701
797.063;1679
797.125;1608
797.188;1569
797.250;1577
797.313;1589
797.375;1584
797.438;1591
797.500;1589
797.563;1584
797.625;1579
797.688;1569
797.750;1562
797.813;1552
797.875;1569
797.938;1562
798.000;1616
798.063;1726
798.125;1821
798.188;1853
798.250;1882
798.313;1867
798.375;1811
798.438;1862
798.500;1889
798.563;1882
798.625;1909
798.688;1894
798.750;1862
798.813;1875
798.875;1882
798.938;1884
799.000;1833
799.063;1826
799.125;1857
799.188;1855
799.250;1857
799.313;1894
799.375;1904
799.438;1906
799.500;1838
799.563;1826
799.625;1848
799.688;1838
799.750;1779
799.813;1789
799.875;1865
799.938;1872
800.000;1896
800.063;1909
800.125;1911
800.188;1894
800.250;1862
800.313;1875
800.375;1872
800.438;1831
800.500;1901
800.563;1882
800.625;1855
800.688;1892
800.750;1904
800.813;1911
800.875;1909
800.938;1879
801.000;1896
801.063;1889
801.125;1884
801.188;1882
801.250;1857
801.313;1862
801.375;1872
801.438;1882
801.500;1894
801.563;1899
801.625;1892
801.688;1872
801.750;1848
801.813;1882
801.875;1877
801.938;1879
802.000;1833
802.063;1882
802.125;1882
802.188;1884
802.250;1870
802.313;1853
802.375;1870
802.438;1865
802.500;1843
802.563;1657
802.625;1821
802.688;1791
802.750;1748
802.813;1721
802.875;1701
802.938;1669
803.000;1652
803.063;1630
803.125;1625
803.188;1606
803.250;1604
803.313;1633
803.375;1613
803.438;1640
803.500;1669
803.563;1694
803.625;1704
803.688;1694
803.750;1696
803.813;1691
803.875;1696
803.938;1691
804.000;1679
804.063;1726
804.125;1708
804.188;1716
804.250;1718
804.313;1708
804.375;1682
804.438;1677
804.500;1708
804.563;1679
804.625;1682
804.688;1691
804.750;1708
804.813;1696
804.875;1706
804.938;1713
805.000;1728
805.063;1704
805.125;1721
805.188;1723
805.250;1718
805.313;1721
805.375;1679
805.438;1740
805.500;1748
805.563;1762
805.625;1770
805.688;1774
805.750;1779
805.813;1770
805.875;1765
805.938;1762
806.000;1757
806.063;1740
806.125;1750
806.188;1743
806.250;1772
806.313;1765
806.375;1774
806.438;1755
806.500;1777
806.563;1772
806.625;1796
806.688;1772
806.750;1745
806.813;1757
806.875;1765
806.938;1784
807.000;1774
807.063;1796
807.125;1777
807.188;1823
807.250;1791
807.313;1831
807.375;1828
807.438;1811
807.500;1772
807.563;1794
807.625;1782
807.688;1804
807.750;1806
807.813;1794
807.875;1765
807.938;1791
808.000;1784
808.063;1789
808.125;1594
808.188;1748
808.250;1774
808.313;1782
808.375;1804
808.438;1796
808.500;1789
808.563;1796
808.625;1757
808.688;1794
808.750;1811
808.813;1799
808.875;1748
808.938;1796
809.000;1779
809.063;1816
809.125;1813
809.188;1816
809.250;1784
809.313;1787
809.375;1794
809.438;1787
809.500;1791
809.563;1816
809.625;1799
809.688;1796
809.750;1816
809.813;1818
809.875;1828
809.938;1787
810.000;1789
810.063;1777
810.125;1765
810.188;1762
810.250;1762
810.313;1774
810.375;1755
810.438;1784
810.500;1777
810.563;1782
810.625;1779
810.688;1774
810.750;1779
810.813;1757
810.875;1755
810.938;1740
811.000;1770
811.063;1772
811.125;1791
811.188;1789
811.250;1843
811.313;1850
811.375;1843
811.438;1865
811.500;1884
811.563;1921
811.625;1997
811.688;2050
811.750;2041
811.813;2026
811.875;1984
811.938;1933
812.000;1870
812.063;1833
812.125;1816
812.188;1838
812.250;1875
812.313;1899
812.375;1906
812.438;1870
812.500;1848
812.563;1831
812.625;1835
812.688;1870
812.750;1850
812.813;1833
812.875;1818
812.938;1806
813.000;1784
813.063;1777
813.125;1765
813.188;1772
813.250;1770
813.313;1770
813.375;1755
813.438;1826
813.500;1774
813.563;1811
813.625;1857
813.688;1789
813.750;1723
813.813;1757
813.875;1738
813.938;1750
814.000;1774
814.063;1767
814.125;1755
814.188;1733
814.250;1745
814.313;1738
814.375;1738
814.438;1752
814.500;1745
814.563;1733
814.625;1860
814.688;1752
814.750;1740
814.813;1687
814.875;1708
814.938;1713
815.000;1787
815.063;1745
815.125;1779
815.188;1762
815.250;1752
815.313;1765
815.375;1755
815.438;1743
815.500;1733
815.563;1645
815.625;1621
815.688;1616
815.750;1579
815.813;1550
815.875;1733
815.938;1604
816.000;1560
816.063;1589
816.125;1721
816.188;1623
816.250;1730
816.313;1618
816.375;1630
816.438;1657
816.500;1782
816.563;1926
816.625;2014
816.688;2070
816.750;2124
816.813;2116
816.875;2077
816.938;1943
817.000;1889
817.063;1870
817.125;1860
817.188;1862
817.250;1892
817.313;1909
817.375;1918
817.438;1901
817.500;1896
817.563;1884
817.625;1850
817.688;1821
817.750;1784
817.813;1743
817.875;1706
817.938;1682
818.000;1757
818.063;1804
818.125;1835
818.188;1855
818.250;1855
818.313;1892
818.375;1867
818.438;1857
818.500;1875
818.563;1855
818.625;1845
818.688;1862
818.750;1857
818.813;1840
818.875;1872
818.938;1884
819.000;1911
819.063;1896
819.125;1884
819.188;1862
819.250;1816
819.313;1804
819.375;1752
819.438;1738
819.500;1740
819.563;1738
819.625;1735
819.688;1755
819.750;1728
819.813;1740
819.875;1718
819.938;1721
820.000;1770
820.063;1735
820.125;1735
820.188;1708
820.250;1716
820.313;1750
820.375;1708
820.438;1682
820.500;1718
820.563;1760
820.625;1777
820.688;1831
820.750;1828
820.813;1848
820.875;1765
820.938;1777
821.000;1750
821.063;1772
821.125;1721
821.188;1718
821.250;1760
821.313;1799
821.375;1806
821.438;1833
821.500;1813
821.563;1772
821.625;1748
821.688;1723
821.750;1730
821.813;1718
821.875;1706
821.938;1760
822.000;1745
822.063;1711
822.125;1772
822.188;1782
822.250;1804
822.313;1833
822.375;1843
822.438;1894
822.500;1855
822.563;1948
822.625;1965
822.688;2014
822.750;2050
822.813;1997
822.875;1965
822.938;2028
823.000;2053
823.063;2036
823.125;2026
823.188;2053
823.250;1994
823.313;2016
823.375;2004
823.438;2041
823.500;2041
823.563;2031
823.625;2036
823.688;2041
823.750;2036
823.813;2048
823.875;2065
823.938;2045
824.000;2048
824.063;2055
824.125;2050
824.188;1997
824.250;1987
824.313;1992
824.375;2053
824.438;2026
824.500;2028
824.563;2043
824.625;2045
824.688;2048
824.750;2033
824.813;2004
824.875;1962
824.938;2004
825.000;2038
825.063;2028
825.125;2048
825.188;2055
825.250;2041
825.313;2009
825.375;2011
825.438;2023
825.500;2033
825.563;2009
825.625;1984
825.688;2004
825.750;2031
825.813;2026
825.875;2006
825.938;2036
826.000;1989
826.063;2009
826.125;2028
826.188;2028
826.250;2011
826.313;2011
826.375;2028
826.438;2038
826.500;2021
826.563;2038
826.625;2033
826.688;2006
826.750;2019
826.813;2011
826.875;2014
826.938;2026
827.000;2001
827.063;1999
827.125;1933
827.188;1943
827.250;1899
827.313;1877
827.375;1791
827.438;1850
827.500;1733
827.563;1713
827.625;1645
827.688;1726
827.750;1713
827.813;1701
827.875;1718
827.938;1704
828.000;1745
828.063;1713
828.125;1679
828.188;1704
828.250;1716
828.313;1694
828.375;1711
828.438;1723
828.500;1738
828.563;1740
828.625;1745
828.688;1730
828.750;1740
828.813;1689
828.875;1694
828.938;1691
829.000;1684
829.063;1674
829.125;1677
829.188;1684
829.250;1696
829.313;1679
829.375;1718
829.438;1743
829.500;1784
829.563;1879
829.625;1901
829.688;1918
829.750;1923
829.813;1906
829.875;1882
829.938;1892
830.000;1889
830.063;1879
830.125;1882
830.188;1889
830.250;1894
830.313;1889
830.375;1889
830.438;1899
830.500;1904
830.563;1899
830.625;1909
830.688;1911
830.750;1923
830.813;1911
830.875;1892
830.938;1889
831.000;1889
831.063;1904
831.125;1936
831.188;1948
831.250;1992
831.313;2001
831.375;2045
831.438;2065
831.500;2080
831.563;2114
831.625;2119
831.688;2133
831.750;2131
831.813;2148
831.875;1987
831.938;1999
832.000;2114
832.063;2111
832.125;2080
832.188;2021
832.250;1933
832.313;1892
832.375;1911
832.438;1906
832.500;2001
832.563;1894
832.625;1953
832.688;1860
832.750;1838
832.813;1843
832.875;1838
832.938;1835
833.000;1848
833.063;1855
833.125;1838
833.188;1835
833.250;1879
833.313;1838
833.375;1843
833.438;1828
833.500;1818
833.563;1843
833.625;1860
833.688;1821
833.750;1809
833.813;1804
833.875;1831
833.938;1809
834.000;1831
834.063;1838
834.125;1835
834.188;1850
834.250;1936
834.313;1965
834.375;1948
834.438;1933
834.500;1894
834.563;1848
834.625;1784
834.688;1784
834.750;1796
834.813;1745
834.875;1784
834.938;1809
835.000;1867
835.063;2011
835.125;2062
835.188;2058
835.250;2011
835.313;1904
835.375;1809
835.438;1682
835.500;1647
835.563;1662
835.625;1672
835.688;1745
835.750;1657
835.813;1647
835.875;1650
835.938;1743
836.000;1660
836.063;1647
836.125;1630
836.188;1694
836.250;1694
836.313;1777
836.375;1914
836.438;1982
836.500;2067
836.563;2089
836.625;2099
836.688;2102
836.750;2089
836.813;2075
836.875;2077
836.938;2067
837.000;2070
837.063;2077
837.125;2065
837.188;2070
837.250;2053
837.313;2065
837.375;2060
837.438;2062
837.500;2041
837.563;2028
837.625;1979
837.688;1936
837.750;1877
837.813;1833
837.875;1879
837.938;1928
838.000;1967
838.063;2023
838.125;2019
838.188;2019
838.250;2045
838.313;2033
838.375;2016
838.438;2028
838.500;2021
838.563;2036
838.625;2009
838.688;2021
838.750;2006
838.813;1992
838.875;2028
838.938;2019
839.000;2006
839.063;2028
839.125;1979
839.188;1921
839.250;1896
839.313;1813
839.375;1762
839.438;1782
839.500;1694
839.563;1726
839.625;1682
839.688;1728
839.750;1726
839.813;1706
839.875;1794
839.938;1726
840.000;1723
840.063;1735
840.125;1684
840.188;1672
840.250;1662
840.313;1630
840.375;1640
840.438;1667
840.500;1679
840.563;1706
840.625;1743
840.688;1811
840.750;1831
840.813;1831
840.875;1806
840.938;1821
841.000;1811
841.063;1813
841.125;1811
841.188;1794
841.250;1823
841.313;1816
841.375;1818
841.438;1813
841.500;1826
841.563;1835
841.625;1828
841.688;1823
841.750;1823
841.813;1826
841.875;1801
841.938;1799
842.000;1799
842.063;1784
842.125;1806
842.188;1840
842.250;1838
842.313;1843
842.375;1945
842.438;2055
842.500;2116
842.563;2141
842.625;2172
842.688;2160
842.750;2172
842.813;2148
842.875;2158
842.938;2133
843.000;2167
843.063;2165
843.125;2167
843.188;2175
843.250;2141
843.313;2158
843.375;2136
843.438;2136
843.500;2143
843.563;2165
843.625;2163
843.688;2150
843.750;2145
843.813;2150
843.875;2165
843.938;2128
844.000;2136
844.063;2143
844.125;2128
844.188;2121
844.250;2126
844.313;1994
844.375;2109
844.438;2145
844.500;2145
844.563;2145
844.625;2119
844.688;2128
844.750;2155
844.813;2133
844.875;2133
844.938;2143
845.000;2124
845.063;2114
845.125;2133
845.188;2133
845.250;2116
845.313;2133
845.375;2138
845.438;2131
845.500;2116
845.563;2121
845.625;2109
845.688;2121
845.750;2111
845.813;2124
845.875;2119
845.938;2114
846.000;2116
846.063;2131
846.125;2133
846.188;2109
846.250;2094
846.313;2114
846.375;2116
846.438;2109
846.500;2119
846.563;2116
846.625;2102
846.688;2124
846.750;2114
846.813;2116
846.875;2104
846.938;2094
847.000;2067
847.063;2004
847.125;1901
847.188;1877
847.250;1865
847.313;1823
847.375;1831
847.438;1818
847.500;1823
847.563;1750
847.625;1767
847.688;1735
847.750;1774
847.813;1757
847.875;1794
847.938;1799
848.000;1813
848.063;1806
848.125;1811
848.188;1774
848.250;1772
848.313;1748
848.375;1721
848.438;1735
848.500;1713
848.563;1723
848.625;1718
848.688;1704
848.750;1699
848.813;1691
848.875;1696
848.938;1689
849.000;1657
849.063;1657
849.125;1655
849.188;1682
849.250;1650
849.313;1679
849.375;1699
849.438;1745
849.500;1787
849.563;1823
849.625;1828
849.688;1853
849.750;1853
849.813;1857
849.875;1875
849.938;1853
850.000;1850
850.063;1862
850.125;1867
850.188;1884
850.250;1892
850.313;1894
850.375;1909
850.438;1914
850.500;1911
850.563;1904
850.625;1906
850.688;1916
850.750;1901
850.813;1901
850.875;1901
850.938;1916
851.000;1933
851.063;1977
851.125;1999
851.188;2023
851.250;2048
851.313;2087
851.375;2106
851.438;2133
851.500;2131
851.563;2143
851.625;2141
851.688;2143
851.750;2126
851.813;2116
851.875;2111
851.938;2099
852.000;2097
852.063;2060
852.125;1962
852.188;1894
852.250;1887
852.313;1894
852.375;1906
852.438;1875
852.500;1943
852.563;1918
852.625;1882
852.688;1896
852.750;1818
852.813;1872
852.875;1853
852.938;1875
853.000;1835
853.063;1862
853.125;1838
853.188;1843
853.250;1855
853.313;1826
853.375;1831
853.438;1826
853.500;1857
853.563;1782
853.625;1787
853.688;1804
853.750;1789
853.813;1791
853.875;1809
853.938;1787
854.000;1789
854.063;1833
854.125;1853
854.188;1862
854.250;1882
854.313;1835
854.375;1813
854.438;1779
854.500;1743
854.563;1767
854.625;1760
854.688;1735
854.750;1777
854.813;1718
854.875;1855
854.938;1906
855.000;1945
855.063;1933
855.125;1894
855.188;1835
855.250;1713
855.313;1657
855.375;1689
855.438;1596
855.500;1628
855.563;1628
855.625;1623
855.688;1660
855.750;1655
855.813;1674
855.875;1696
855.938;1740
856.000;1811
856.063;1801
856.125;1801
856.188;1816
856.250;1909
856.313;2006
856.375;2065
856.438;2092
856.500;2133
856.563;2133
856.625;2092
856.688;2077
856.750;2062
856.813;2055
856.875;2055
856.938;2058
857.000;2055
857.063;2043
857.125;2043
857.188;2041
857.250;2036
857.313;2036
857.375;2021
857.438;2011
857.500;1958
857.563;1909
857.625;1860
857.688;1848
857.750;1936
857.813;2041
857.875;2099
857.938;2126
858.000;2148
858.063;2155
858.125;2148
858.188;2153
858.250;2153
858.313;2155
858.375;2160
858.438;2163
858.500;2155
858.563;2163
858.625;2148
858.688;2155
858.750;2148
858.813;2150
858.875;2148
858.938;2138
859.000;2111
859.063;2070
859.125;2011
859.188;1928
859.250;1813
859.313;1730
859.375;1750
859.438;1750
859.500;1740
859.563;1733
859.625;1723
859.688;1721
859.750;1755
859.813;1743
859.875;1713
859.938;1740
860.000;1723
860.063;1730
860.125;1694
860.188;1708
860.250;1711
860.313;1716
860.375;1733
860.438;1750
860.500;1767
860.563;1777
860.625;1787
860.688;1796
860.750;1791
860.813;1794
860.875;1796
860.938;1816
861.000;1828
861.063;1840
861.125;1843
861.188;1845
861.250;1833
861.313;1828
861.375;1823
861.438;1828
861.500;1826
861.563;1826
861.625;1813
861.688;1831
861.750;1823
861.813;1799
861.875;1809
861.938;1823
862.000;1833
862.063;1848
862.125;1850
862.188;1879
862.250;1933
862.313;2053
862.375;2119
862.438;2158
862.500;2172
862.563;2182
862.625;2187
862.688;2189
862.750;2185
862.813;2167
862.875;2165
862.938;2175
863.000;2177
863.063;2158
863.125;2165
863.188;2158
863.250;2167
863.313;2172
863.375;2167
863.438;2167
863.500;2160
863.563;2165
863.625;2160
863.688;2160
863.750;2167
863.813;2053
863.875;2150
863.938;2155
864.000;2145
864.063;2141
864.125;2143
864.188;2145
864.250;2143
864.313;2143
864.375;2133
864.438;2138
864.500;2145
864.563;2116
864.625;2136
864.688;2138
864.750;2136
864.813;2126
864.875;2138
864.938;2155
865.000;2136
865.063;2106
865.125;2124
865.188;2102
865.250;2109
865.313;2114
865.375;2121
865.438;2109
865.500;2106
865.563;2104
865.625;2077
865.688;2094
865.750;2092
865.813;2089
865.875;2082
865.938;2067
866.000;2041
866.063;2062
866.125;2053
866.188;2053
866.250;2041
866.313;2021
866.375;2004
866.438;1997
866.500;2026
866.563;2028
866.625;1970
866.688;1989
866.750;1997
866.813;1965
866.875;1950
866.938;1904
867.000;1867
867.063;1838
867.125;1811
867.188;1813
867.250;1821
867.313;1794
867.375;1796
867.438;1813
867.500;1806
867.563;1801
867.625;1801
867.688;1806
867.750;1799
867.813;1794
867.875;1794
867.938;1804
868.000;1809
868.063;1818
868.125;1826
868.188;1835
868.250;1833
868.313;1838
868.375;1835
868.438;1840
868.500;1840
868.563;1826
868.625;1833
868.688;1835
868.750;1840
868.813;1855
868.875;1857
868.938;1865
869.000;1862
869.063;1882
869.125;1889
869.188;1889
869.250;1901
869.313;1945
869.375;2014
869.438;2060
869.500;2080
869.563;2106
869.625;2204
869.688;2126
869.750;2121
869.813;2109
869.875;2111
869.938;2124
870.000;2124
