Frequency[MHz];Amplitude RX1[mV] at pwm=100
 45.000;1257
 45.063;1333
 45.125;1291
 45.188;1271
 45.250;1279
 45.313;1279
 45.375;1298
 45.438;1364
 45.500;1557
 45.563;1557
 45.625;1586
 45.688;1672
 45.750;1660
 45.813;1745
 45.875;1787
 45.938;1811
 46.000;1784
 46.063;1745
 46.125;1708
 46.188;1682
 46.250;1689
 46.313;1723
 46.375;1699
 46.438;1699
 46.500;1740
 46.563;1687
 46.625;1711
 46.688;1723
 46.750;1713
 46.813;1721
 46.875;1691
 46.938;1699
 47.000;1713
 47.063;1704
 47.125;1711
 47.188;1738
 47.250;1701
 47.313;1726
 47.375;1752
 47.438;1728
 47.500;1733
 47.563;1752
 47.625;1718
 47.688;1770
 47.750;1752
 47.813;1840
 47.875;1923
 47.938;1926
 48.000;1867
 48.063;1835
 48.125;1804
 48.188;1770
 48.250;1757
 48.313;1735
 48.375;1755
 48.438;1762
 48.500;1767
 48.563;1770
 48.625;1760
 48.688;1740
 48.750;1777
 48.813;1735
 48.875;1733
 48.938;1762
 49.000;1730
 49.063;1738
 49.125;1743
 49.188;1723
 49.250;1735
 49.313;1723
 49.375;1735
 49.438;1752
 49.500;1750
 49.563;1757
 49.625;1757
 49.688;1745
 49.750;1735
 49.813;1752
 49.875;1726
 49.938;1730
 50.000;1762
 50.063;1733
 50.125;1713
 50.188;1718
 50.250;1704
 50.313;1708
 50.375;1701
 50.438;1701
 50.500;1704
 50.563;1708
 50.625;1708
 50.688;1701
 50.750;1691
 50.813;1687
 50.875;1696
 50.938;1689
 51.000;1704
 51.063;1694
 51.125;1706
 51.188;1706
 51.250;1730
 51.313;1723
 51.375;1733
 51.438;1726
 51.500;1743
 51.563;1762
 51.625;1762
 51.688;1755
 51.750;1787
 51.813;1740
 51.875;1762
 51.938;1816
 52.000;1838
 52.063;1901
 52.125;1884
 52.188;1823
 52.250;1806
 52.313;1757
 52.375;1730
 52.438;1713
 52.500;1708
 52.563;1713
 52.625;1750
 52.688;1721
 52.750;1723
 52.813;1752
 52.875;1713
 52.938;1721
 53.000;1748
 53.063;1740
 53.125;1723
 53.188;1721
 53.250;1701
 53.313;1726
 53.375;1699
 53.438;1699
 53.500;1691
 53.563;1679
 53.625;1677
 53.688;1706
 53.750;1701
 53.813;1711
 53.875;1726
 53.938;1691
 54.000;1728
 54.063;1762
 54.125;1811
 54.188;1860
 54.250;1796
 54.313;1767
 54.375;1733
 54.438;1699
 54.500;1684
 54.563;1691
 54.625;1669
 54.688;1684
 54.750;1684
 54.813;1682
 54.875;1689
 54.938;1679
 55.000;1665
 55.063;1687
 55.125;1689
 55.188;1699
 55.250;1682
 55.313;1677
 55.375;1669
 55.438;1674
 55.500;1647
 55.563;1655
 55.625;1640
 55.688;1635
 55.750;1638
 55.813;1638
 55.875;1640
 55.938;1674
 56.000;1716
 56.063;1765
 56.125;1755
 56.188;1745
 56.250;1782
 56.313;1767
 56.375;1713
 56.438;1672
 56.500;1628
 56.563;1621
 56.625;1621
 56.688;1616
 56.750;1613
 56.813;1601
 56.875;1613
 56.938;1616
 57.000;1606
 57.063;1608
 57.125;1613
 57.188;1647
 57.250;1657
 57.313;1645
 57.375;1628
 57.438;1643
 57.500;1618
 57.563;1621
 57.625;1608
 57.688;1611
 57.750;1594
 57.813;1599
 57.875;1596
 57.938;1599
 58.000;1621
 58.063;1611
 58.125;1621
 58.188;1677
 58.250;1777
 58.313;1833
 58.375;1865
 58.438;1833
 58.500;1757
 58.563;1665
 58.625;1608
 58.688;1604
 58.750;1591
 58.813;1582
 58.875;1577
 58.938;1562
 59.000;1579
 59.063;1569
 59.125;1569
 59.188;1577
 59.250;1613
 59.313;1662
 59.375;1655
 59.438;1608
 59.500;1591
 59.563;1586
 59.625;1562
 59.688;1555
 59.750;1550
 59.813;1550
 59.875;1525
 59.938;1525
 60.000;1540
 60.063;1525
 60.125;1533
 60.188;1552
 60.250;1604
 60.313;1694
 60.375;1762
 60.438;1784
 60.500;1784
 60.563;1750
 60.625;1623
 60.688;1596
 60.750;1552
 60.813;1564
 60.875;1594
 60.938;1564
 61.000;1584
 61.063;1604
 61.125;1599
 61.188;1606
 61.250;1611
 61.313;1608
 61.375;1662
 61.438;1662
 61.500;1647
 61.563;1633
 61.625;1628
 61.688;1616
 61.750;1628
 61.813;1599
 61.875;1623
 61.938;1599
 62.000;1591
 62.063;1577
 62.125;1584
 62.188;1577
 62.250;1584
 62.313;1586
 62.375;1594
 62.438;1630
 62.500;1635
 62.563;1621
 62.625;1643
 62.688;1599
 62.750;1572
 62.813;1596
 62.875;1574
 62.938;1591
 63.000;1594
 63.063;1589
 63.125;1584
 63.188;1596
 63.250;1582
 63.313;1604
 63.375;1596
 63.438;1604
 63.500;1662
 63.563;1655
 63.625;1616
 63.688;1635
 63.750;1604
 63.813;1599
 63.875;1623
 63.938;1625
 64.000;1711
 64.063;1716
 64.125;1704
 64.188;1696
 64.250;1655
 64.313;1643
 64.375;1672
 64.438;1655
 64.500;1672
 64.563;1799
 64.625;1723
 64.688;1723
 64.750;1772
 64.813;1640
 64.875;1645
 64.938;1657
 65.000;1638
 65.063;1652
 65.125;1655
 65.188;1633
 65.250;1667
 65.313;1643
 65.375;1643
 65.438;1679
 65.500;1640
 65.563;1674
 65.625;1767
 65.688;1689
 65.750;1684
 65.813;1694
 65.875;1650
 65.938;1672
 66.000;1665
 66.063;1652
 66.125;1679
 66.188;1662
 66.250;1662
 66.313;1689
 66.375;1657
 66.438;1679
 66.500;1733
 66.563;1674
 66.625;1735
 66.688;1791
 66.750;1716
 66.813;1738
 66.875;1696
 66.938;1669
 67.000;1682
 67.063;1647
 67.125;1684
 67.188;1699
 67.250;1665
 67.313;1677
 67.375;1696
 67.438;1665
 67.500;1679
 67.563;1701
 67.625;1696
 67.688;1723
 67.750;1757
 67.813;1711
 67.875;1708
 67.938;1708
 68.000;1691
 68.063;1716
 68.125;1694
 68.188;1711
 68.250;1730
 68.313;1706
 68.375;1716
 68.438;1735
 68.500;1726
 68.563;1745
 68.625;1796
 68.688;1799
 68.750;1838
 68.813;1838
 68.875;1804
 68.938;1794
 69.000;1762
 69.063;1748
 69.125;1767
 69.188;1748
 69.250;1762
 69.313;1772
 69.375;1745
 69.438;1748
 69.500;1772
 69.563;1752
 69.625;1779
 69.688;1791
 69.750;1806
 69.813;1835
 69.875;1816
 69.938;1784
 70.000;1794
 70.063;1772
 70.125;1760
 70.188;1774
 70.250;1755
 70.313;1765
 70.375;1765
 70.438;1760
 70.500;1755
 70.563;1767
 70.625;1752
 70.688;1806
 70.750;1828
 70.813;1806
 70.875;1816
 70.938;1811
 71.000;1782
 71.063;1770
 71.125;1745
 71.188;1728
 71.250;1730
 71.313;1716
 71.375;1713
 71.438;1716
 71.500;1699
 71.563;1706
 71.625;1704
 71.688;1699
 71.750;1718
 71.813;1718
 71.875;1708
 71.938;1721
 72.000;1701
 72.063;1677
 72.125;1684
 72.188;1647
 72.250;1660
 72.313;1645
 72.375;1635
 72.438;1647
 72.500;1633
 72.563;1628
 72.625;1638
 72.688;1616
 72.750;1633
 72.813;1674
 72.875;1687
 72.938;1640
 73.000;1652
 73.063;1633
 73.125;1625
 73.188;1604
 73.250;1582
 73.313;1604
 73.375;1594
 73.438;1589
 73.500;1586
 73.563;1594
 73.625;1582
 73.688;1601
 73.750;1589
 73.813;1591
 73.875;1608
 73.938;1604
 74.000;1608
 74.063;1601
 74.125;1579
 74.188;1574
 74.250;1557
 74.313;1550
 74.375;1579
 74.438;1555
 74.500;1552
 74.563;1572
 74.625;1560
 74.688;1545
 74.750;1555
 74.813;1547
 74.875;1550
 74.938;1547
 75.000;1547
 75.063;1542
 75.125;1540
 75.188;1525
 75.250;1533
 75.313;1545
 75.375;1567
 75.438;1574
 75.500;1545
 75.563;1550
 75.625;1557
 75.688;1542
 75.750;1557
 75.813;1562
 75.875;1572
 75.938;1628
 76.000;1625
 76.063;1662
 76.125;1660
 76.188;1635
 76.250;1594
 76.313;1589
 76.375;1569
 76.438;1584
 76.500;1589
 76.563;1562
 76.625;1579
 76.688;1582
 76.750;1569
 76.813;1601
 76.875;1589
 76.938;1616
 77.000;1689
 77.063;1665
 77.125;1652
 77.188;1652
 77.250;1611
 77.313;1596
 77.375;1599
 77.438;1577
 77.500;1596
 77.563;1579
 77.625;1572
 77.688;1586
 77.750;1574
 77.813;1577
 77.875;1582
 77.938;1596
 78.000;1621
 78.063;1662
 78.125;1635
 78.188;1662
 78.250;1650
 78.313;1611
 78.375;1601
 78.438;1606
 78.500;1584
 78.563;1591
 78.625;1589
 78.688;1567
 78.750;1579
 78.813;1584
 78.875;1591
 78.938;1594
 79.000;1584
 79.063;1616
 79.125;1655
 79.188;1601
 79.250;1608
 79.313;1608
 79.375;1584
 79.438;1594
 79.500;1574
 79.563;1574
 79.625;1584
 79.688;1574
 79.750;1577
 79.813;1579
 79.875;1572
 79.938;1608
 80.000;1638
 80.063;1672
 80.125;1667
 80.188;1633
 80.250;1618
 80.313;1599
 80.375;1591
 80.438;1579
 80.500;1577
 80.563;1579
 80.625;1574
 80.688;1572
 80.750;1574
 80.813;1596
 80.875;1564
 80.938;1572
 81.000;1577
 81.063;1579
 81.125;1567
 81.188;1599
 81.250;1589
 81.313;1594
 81.375;1591
 81.438;1596
 81.500;1599
 81.563;1594
 81.625;1579
 81.688;1599
 81.750;1584
 81.813;1596
 81.875;1596
 81.938;1586
 82.000;1599
 82.063;1599
 82.125;1589
 82.188;1606
 82.250;1606
 82.313;1591
 82.375;1596
 82.438;1594
 82.500;1604
 82.563;1608
 82.625;1577
 82.688;1579
 82.750;1582
 82.813;1562
 82.875;1589
 82.938;1584
 83.000;1579
 83.063;1574
 83.125;1579
 83.188;1589
 83.250;1618
 83.313;1618
 83.375;1601
 83.438;1594
 83.500;1569
 83.563;1579
 83.625;1579
 83.688;1545
 83.750;1560
 83.813;1550
 83.875;1542
 83.938;1569
 84.000;1560
 84.063;1562
 84.125;1572
 84.188;1572
 84.250;1613
 84.313;1628
 84.375;1582
 84.438;1589
 84.500;1604
 84.563;1555
 84.625;1564
 84.688;1547
 84.750;1540
 84.813;1535
 84.875;1530
 84.938;1535
 85.000;1564
 85.063;1523
 85.125;1542
 85.188;1530
 85.250;1530
 85.313;1599
 85.375;1621
 85.438;1572
 85.500;1579
 85.563;1562
 85.625;1533
 85.688;1538
 85.750;1518
 85.813;1516
 85.875;1513
 85.938;1523
 86.000;1540
 86.063;1540
 86.125;1520
 86.188;1513
 86.250;1535
 86.313;1574
 86.375;1604
 86.438;1582
 86.500;1545
 86.563;1562
 86.625;1545
 86.688;1506
 86.750;1489
 86.813;1459
 86.875;1467
 86.938;1474
 87.000;1511
 87.063;1540
 87.125;1569
 87.188;1518
 87.250;1518
 87.313;1506
 87.375;1533
 87.438;1579
 87.500;1552
 87.563;1523
 87.625;1513
 87.688;1469
 87.750;1440
 87.813;1430
 87.875;1423
 87.938;1406
 88.000;1433
 88.063;1440
 88.125;1433
 88.188;1406
 88.250;1403
 88.313;1396
 88.375;1455
 88.438;1503
 88.500;1542
 88.563;1589
 88.625;1696
 88.688;1704
 88.750;1684
 88.813;1674
 88.875;1591
 88.938;1413
 89.000;1359
 89.063;1347
 89.125;1333
 89.188;1335
 89.250;1340
 89.313;1447
 89.375;1647
 89.438;1726
 89.500;1723
 89.563;1665
 89.625;1657
 89.688;1516
 89.750;1625
 89.813;1696
 89.875;1767
 89.938;1726
 90.000;1660
 90.063;1591
 90.125;1506
 90.188;1513
 90.250;1638
 90.313;1594
 90.375;1525
 90.438;1464
 90.500;1376
 90.563;1345
 90.625;1462
 90.688;1442
 90.750;1491
 90.813;1489
 90.875;1435
 90.938;1530
 91.000;1594
 91.063;1657
 91.125;1630
 91.188;1599
 91.250;1604
 91.313;1599
 91.375;1469
 91.438;1474
 91.500;1396
 91.563;1333
 91.625;1311
 91.688;1325
 91.750;1352
 91.813;1374
 91.875;1416
 91.938;1379
 92.000;1376
 92.063;1423
 92.125;1362
 92.188;1350
 92.250;1372
 92.313;1354
 92.375;1340
 92.438;1374
 92.500;1396
 92.563;1503
 92.625;1564
 92.688;1591
 92.750;1538
 92.813;1535
 92.875;1437
 92.938;1379
 93.000;1372
 93.063;1335
 93.125;1369
 93.188;1347
 93.250;1345
 93.313;1369
 93.375;1357
 93.438;1347
 93.500;1418
 93.563;1406
 93.625;1440
 93.688;1496
 93.750;1503
 93.813;1567
 93.875;1718
 93.938;1906
 94.000;2138
 94.063;2258
 94.125;2285
 94.188;2292
 94.250;2299
 94.313;2292
 94.375;2246
 94.438;2080
 94.500;1801
 94.563;1694
 94.625;1655
 94.688;1611
 94.750;1589
 94.813;1418
 94.875;1391
 94.938;1367
 95.000;1362
 95.063;1381
 95.125;1357
 95.188;1320
 95.250;1376
 95.313;1337
 95.375;1315
 95.438;1376
 95.500;1389
 95.563;1381
 95.625;1411
 95.688;1379
 95.750;1386
 95.813;1396
 95.875;1333
 95.938;1384
 96.000;1413
 96.063;1420
 96.125;1447
 96.188;1408
 96.250;1330
 96.313;1379
 96.375;1379
 96.438;1352
 96.500;1372
 96.563;1308
 96.625;1206
 96.688;1323
 96.750;1367
 96.813;1186
 96.875;1435
 96.938;1254
 97.000;1364
 97.063;1401
 97.125;1450
 97.188;1469
 97.250;1247
 97.313;1394
 97.375;1345
 97.438;1604
 97.500;1894
 97.563;1982
 97.625;1828
 97.688;1369
 97.750;1342
 97.813;1311
 97.875;1508
 97.938;1613
 98.000;1574
 98.063;1464
 98.125;1323
 98.188;1437
 98.250;1467
 98.313;1276
 98.375;1447
 98.438;1201
 98.500;1201
 98.563;1245
 98.625;1108
 98.688;1057
 98.750;1230
 98.813;1311
 98.875;1428
 98.938;1044
 99.000;1472
 99.063;1359
 99.125;1252
 99.188;1557
 99.250;1621
 99.313;1335
 99.375;1308
 99.438;1428
 99.500;1149
 99.563;1362
 99.625;1215
 99.688;1210
 99.750;1230
 99.813;1362
 99.875;1625
 99.938;1892
100.000;1972
100.063;2019
100.125;1982
100.188;1933
100.250;1909
100.313;1684
100.375;1425
100.438;1540
100.500;1574
100.563;1772
100.625;1945
100.688;2163
100.750;2277
100.813;2287
100.875;2285
100.938;2299
101.000;2297
101.063;2302
101.125;2221
101.188;1958
101.250;1647
101.313;1357
101.375;1320
101.438;1433
101.500;1718
101.563;1918
101.625;1999
101.688;2058
101.750;2004
101.813;1955
101.875;1811
101.938;1613
102.000;1496
102.063;1184
102.125;1157
102.188;1674
102.250;1772
102.313;1508
102.375;1413
102.438;1462
102.500;1574
102.563;1423
102.625;1398
102.688;1372
102.750;1223
102.813;1276
102.875;1289
102.938;1435
103.000;1459
103.063;1469
103.125;1503
103.188;1696
103.250;1474
103.313;1518
103.375;1574
103.438;1657
103.500;1655
103.563;1779
103.625;1701
103.688;1689
103.750;1274
103.813;1379
103.875;1418
103.938;1396
104.000;1423
104.063;1428
104.125;1481
104.188;1613
104.250;1557
104.313;1586
104.375;1640
104.438;1591
104.500;1433
104.563;1196
104.625;1464
104.688;1552
104.750;1772
104.813;1813
104.875;1799
104.938;1809
105.000;1677
105.063;1533
105.125;1262
105.188;1123
105.250;1193
105.313;1259
105.375;1113
105.438;1000
105.500;1015
105.563;1018
105.625;1040
105.688;1057
105.750;1103
105.813;1069
105.875;1142
105.938;1240
106.000;1391
106.063;1457
106.125;1516
106.188;1394
106.250;1357
106.313;1286
106.375;1459
106.438;1652
106.500;1860
106.563;2102
106.625;2236
106.688;2277
106.750;2287
106.813;2302
106.875;2299
106.938;2299
107.000;2255
107.063;2045
107.125;1809
107.188;1528
107.250;1208
107.313;1210
107.375;1269
107.438;1318
107.500;1359
107.563;1330
107.625;1311
107.688;1247
107.750;1127
107.813;1110
107.875;1137
107.938;1127
108.000;1062
108.063;1325
108.125;1728
108.188;1633
108.250;1035
108.313;1010
108.375;1245
108.438;1286
108.500;1157
108.563;1101
108.625;1071
108.688;1013
108.750;996
108.813;1020
108.875;1057
108.938;1071
109.000;1083
109.063;1127
109.125;1145
109.188;1252
109.250;1113
109.313;1022
109.375;1188
109.438;1796
109.500;1853
109.563;1369
109.625;1057
109.688;1062
109.750;1042
109.813;1042
109.875;1103
109.938;1184
110.000;1098
110.063;1132
110.125;1159
110.188;1037
110.250;1076
110.313;1027
110.375;920
110.438;939
110.500;1123
110.563;1437
110.625;1730
110.688;1911
110.750;1955
110.813;2006
110.875;1989
110.938;1906
111.000;1726
111.063;1477
111.125;1254
111.188;1198
111.250;1237
111.313;1284
111.375;1337
111.438;1354
111.500;1362
111.563;1374
111.625;1357
111.688;1354
111.750;1376
111.813;1357
111.875;1354
111.938;1364
112.000;1333
112.063;1328
112.125;1362
112.188;1345
112.250;1354
112.313;1372
112.375;1345
112.438;1391
112.500;1394
112.563;1379
112.625;1418
112.688;1420
112.750;1403
112.813;1398
112.875;1376
112.938;1364
113.000;1364
113.063;1347
113.125;1347
113.188;1369
113.250;1354
113.313;1369
113.375;1386
113.438;1372
113.500;1396
113.563;1374
113.625;1376
113.688;1381
113.750;1362
113.813;1347
113.875;1362
113.938;1364
114.000;1374
114.063;1376
114.125;1362
114.188;1381
114.250;1413
114.313;1408
114.375;1396
114.438;1374
114.500;1359
114.563;1386
114.625;1376
114.688;1379
114.750;1435
114.813;1503
114.875;1611
114.938;1591
115.000;1589
115.063;1542
115.125;1394
115.188;1364
115.250;1364
115.313;1364
115.375;1357
115.438;1372
115.500;1374
115.563;1364
115.625;1372
115.688;1376
115.750;1376
115.813;1364
115.875;1352
115.938;1359
116.000;1352
116.063;1369
116.125;1374
116.188;1340
116.250;1352
116.313;1352
116.375;1352
116.438;1352
116.500;1357
116.563;1350
116.625;1352
116.688;1352
116.750;1369
116.813;1350
116.875;1354
116.938;1347
117.000;1357
117.063;1337
117.125;1362
117.188;1357
117.250;1342
117.313;1350
117.375;1340
117.438;1352
117.500;1376
117.563;1384
117.625;1376
117.688;1357
117.750;1354
117.813;1364
117.875;1362
117.938;1342
118.000;1345
118.063;1354
118.125;1352
118.188;1350
118.250;1350
118.313;1328
118.375;1330
118.438;1328
118.500;1340
118.563;1347
118.625;1342
118.688;1347
118.750;1364
118.813;1350
118.875;1350
118.938;1350
119.000;1333
119.063;1320
119.125;1335
119.188;1333
119.250;1345
119.313;1330
119.375;1320
119.438;1333
119.500;1342
119.563;1350
119.625;1389
119.688;1408
119.750;1379
119.813;1367
119.875;1352
119.938;1362
120.000;1352
120.063;1357
120.125;1364
120.188;1342
120.250;1345
120.313;1347
120.375;1330
120.438;1330
120.500;1330
120.563;1340
120.625;1359
120.688;1374
120.750;1357
120.813;1359
120.875;1367
120.938;1362
121.000;1350
121.063;1335
121.125;1315
121.188;1308
121.250;1320
121.313;1323
121.375;1335
121.438;1320
121.500;1330
121.563;1342
121.625;1340
121.688;1379
121.750;1430
121.813;1433
121.875;1384
121.938;1376
122.000;1352
122.063;1357
122.125;1328
122.188;1308
122.250;1313
122.313;1313
122.375;1311
122.438;1328
122.500;1313
122.563;1318
122.625;1323
122.688;1335
122.750;1359
122.813;1350
122.875;1340
122.938;1354
123.000;1357
123.063;1318
123.125;1325
123.188;1303
123.250;1293
123.313;1303
123.375;1298
123.438;1311
123.500;1306
123.563;1303
123.625;1313
123.688;1311
123.750;1325
123.813;1369
123.875;1406
123.938;1379
124.000;1345
124.063;1325
124.125;1311
124.188;1318
124.250;1301
124.313;1293
124.375;1296
124.438;1293
124.500;1274
124.563;1291
124.625;1293
124.688;1289
124.750;1303
124.813;1320
124.875;1340
124.938;1345
125.000;1369
125.063;1406
125.125;1362
125.188;1337
125.250;1337
125.313;1286
125.375;1279
125.438;1284
125.500;1286
125.563;1286
125.625;1293
125.688;1284
125.750;1296
125.813;1289
125.875;1306
125.938;1342
126.000;1357
126.063;1342
126.125;1320
126.188;1303
126.250;1293
126.313;1284
126.375;1308
126.438;1323
126.500;1318
126.563;1308
126.625;1311
126.688;1296
126.750;1281
126.813;1296
126.875;1313
126.938;1311
127.000;1318
127.063;1298
127.125;1293
127.188;1296
127.250;1293
127.313;1298
127.375;1298
127.438;1296
127.500;1293
127.563;1289
127.625;1301
127.688;1311
127.750;1286
127.813;1293
127.875;1306
127.938;1308
128.000;1315
128.063;1342
128.125;1337
128.188;1328
128.250;1311
128.313;1308
128.375;1308
128.438;1296
128.500;1293
128.563;1308
128.625;1296
128.688;1293
128.750;1313
128.813;1311
128.875;1291
128.938;1315
129.000;1318
129.063;1306
129.125;1320
129.188;1291
129.250;1315
129.313;1303
129.375;1303
129.438;1323
129.500;1311
129.563;1303
129.625;1318
129.688;1315
129.750;1306
129.813;1318
129.875;1306
129.938;1313
130.000;1315
130.063;1320
130.125;1325
130.188;1328
130.250;1318
130.313;1306
130.375;1308
130.438;1303
130.500;1318
130.563;1303
130.625;1308
130.688;1318
130.750;1306
130.813;1303
130.875;1311
130.938;1303
131.000;1315
131.063;1320
131.125;1311
131.188;1325
131.250;1311
131.313;1311
131.375;1308
131.438;1313
131.500;1311
131.563;1318
131.625;1318
131.688;1298
131.750;1320
131.813;1301
131.875;1303
131.938;1313
132.000;1313
132.063;1313
132.125;1315
132.188;1318
132.250;1335
132.313;1320
132.375;1315
132.438;1306
132.500;1308
132.563;1311
132.625;1330
132.688;1352
132.750;1384
132.813;1398
132.875;1359
132.938;1372
133.000;1330
133.063;1311
133.125;1308
133.188;1318
133.250;1308
133.313;1315
133.375;1306
133.438;1303
133.500;1311
133.563;1306
133.625;1298
133.688;1311
133.750;1301
133.813;1315
133.875;1315
133.938;1308
134.000;1320
134.063;1330
134.125;1325
134.188;1318
134.250;1320
134.313;1311
134.375;1325
134.438;1308
134.500;1298
134.563;1313
134.625;1296
134.688;1291
134.750;1298
134.813;1298
134.875;1296
134.938;1306
135.000;1289
135.063;1296
135.125;1301
135.188;1291
135.250;1301
135.313;1303
135.375;1296
135.438;1301
135.500;1289
135.563;1293
135.625;1293
135.688;1286
135.750;1284
135.813;1293
135.875;1284
135.938;1291
136.000;1296
136.063;1313
136.125;1311
136.188;1296
136.250;1306
136.313;1293
136.375;1289
136.438;1281
136.500;1284
136.563;1279
136.625;1289
136.688;1284
136.750;1279
136.813;1286
136.875;1271
136.938;1271
137.000;1289
137.063;1286
137.125;1286
137.188;1340
137.250;1379
137.313;1394
137.375;1350
137.438;1354
137.500;1301
137.563;1276
137.625;1276
137.688;1269
137.750;1279
137.813;1279
137.875;1279
137.938;1274
138.000;1279
138.063;1289
138.125;1286
138.188;1281
138.250;1274
138.313;1276
138.375;1274
138.438;1276
138.500;1271
138.563;1271
138.625;1289
138.688;1291
138.750;1271
138.813;1264
138.875;1264
138.938;1271
139.000;1271
139.063;1269
139.125;1271
139.188;1276
139.250;1269
139.313;1276
139.375;1262
139.438;1276
139.500;1271
139.563;1267
139.625;1259
139.688;1271
139.750;1259
139.813;1269
139.875;1257
139.938;1274
140.000;1271
140.063;1279
140.125;1264
140.188;1279
140.250;1276
140.313;1296
140.375;1289
140.438;1284
140.500;1284
140.563;1279
140.625;1269
140.688;1276
140.750;1279
140.813;1279
140.875;1276
140.938;1267
141.000;1259
141.063;1257
141.125;1271
141.188;1264
141.250;1269
141.313;1269
141.375;1259
141.438;1271
141.500;1257
141.563;1274
141.625;1274
141.688;1271
141.750;1264
141.813;1271
141.875;1269
141.938;1274
142.000;1274
142.063;1267
142.125;1262
142.188;1267
142.250;1257
142.313;1267
142.375;1262
142.438;1269
142.500;1271
142.563;1264
142.625;1271
142.688;1264
142.750;1264
142.813;1257
142.875;1250
142.938;1257
143.000;1264
143.063;1262
143.125;1267
143.188;1271
143.250;1269
143.313;1267
143.375;1262
143.438;1271
143.500;1279
143.563;1267
143.625;1264
143.688;1262
143.750;1267
143.813;1259
143.875;1271
143.938;1267
144.000;1267
144.063;1279
144.125;1279
144.188;1269
144.250;1289
144.313;1286
144.375;1298
144.438;1276
144.500;1279
144.563;1281
144.625;1271
144.688;1269
144.750;1269
144.813;1269
144.875;1279
144.938;1271
145.000;1257
145.063;1262
145.125;1269
145.188;1274
145.250;1271
145.313;1267
145.375;1250
145.438;1271
145.500;1286
145.563;1281
145.625;1276
145.688;1274
145.750;1279
145.813;1276
145.875;1276
145.938;1286
146.000;1289
146.063;1281
146.125;1276
146.188;1279
146.250;1284
146.313;1269
146.375;1264
146.438;1257
146.500;1264
146.563;1259
146.625;1264
146.688;1259
146.750;1269
146.813;1267
146.875;1271
146.938;1281
147.000;1267
147.063;1271
147.125;1271
147.188;1269
147.250;1274
147.313;1262
147.375;1269
147.438;1269
147.500;1267
147.563;1276
147.625;1276
147.688;1281
147.750;1276
147.813;1274
147.875;1276
147.938;1281
148.000;1274
148.063;1274
148.125;1271
148.188;1267
148.250;1274
148.313;1279
148.375;1271
148.438;1267
148.500;1271
148.563;1267
148.625;1269
148.688;1276
148.750;1269
148.813;1269
148.875;1262
148.938;1274
149.000;1281
149.063;1269
149.125;1274
149.188;1269
149.250;1269
149.313;1271
149.375;1279
149.438;1276
149.500;1271
149.563;1274
149.625;1269
149.688;1271
149.750;1267
149.813;1271
149.875;1274
149.938;1274
150.000;1281
150.063;1286
150.125;1279
150.188;1276
150.250;1274
150.313;1271
150.375;1291
150.438;1298
150.500;1284
150.563;1279
150.625;1259
150.688;1274
150.750;1281
150.813;1286
150.875;1279
150.938;1284
151.000;1262
151.063;1269
151.125;1271
151.188;1274
151.250;1262
151.313;1274
151.375;1262
151.438;1269
151.500;1267
151.563;1267
151.625;1269
151.688;1271
151.750;1276
151.813;1274
151.875;1274
151.938;1274
152.000;1276
152.063;1267
152.125;1267
152.188;1286
152.250;1284
152.313;1279
152.375;1276
152.438;1284
152.500;1384
152.563;1447
152.625;1506
152.688;1440
152.750;1416
152.813;1352
152.875;1284
152.938;1267
153.000;1274
153.063;1262
153.125;1269
153.188;1271
153.250;1262
153.313;1264
153.375;1271
153.438;1274
153.500;1271
153.563;1267
153.625;1267
153.688;1279
153.750;1276
153.813;1269
153.875;1274
153.938;1286
154.000;1298
154.063;1289
154.125;1301
154.188;1289
154.250;1298
154.313;1296
154.375;1284
154.438;1281
154.500;1269
154.563;1264
154.625;1262
154.688;1271
154.750;1289
154.813;1318
154.875;1350
154.938;1345
155.000;1320
155.063;1318
155.125;1281
155.188;1271
155.250;1267
155.313;1264
155.375;1259
155.438;1274
155.500;1262
155.563;1262
155.625;1279
155.688;1274
155.750;1271
155.813;1274
155.875;1269
155.938;1276
156.000;1279
156.063;1293
156.125;1298
156.188;1291
156.250;1284
156.313;1276
156.375;1269
156.438;1269
156.500;1276
156.563;1264
156.625;1269
156.688;1262
156.750;1274
156.813;1279
156.875;1264
156.938;1271
157.000;1269
157.063;1271
157.125;1269
157.188;1284
157.250;1274
157.313;1291
157.375;1384
157.438;1623
157.500;1848
157.563;1928
157.625;1977
157.688;1909
157.750;1894
157.813;1799
157.875;1550
157.938;1333
158.000;1271
158.063;1284
158.125;1276
158.188;1284
158.250;1289
158.313;1296
158.375;1279
158.438;1281
158.500;1264
158.563;1262
158.625;1264
158.688;1267
158.750;1264
158.813;1262
158.875;1264
158.938;1271
159.000;1264
159.063;1264
159.125;1289
159.188;1274
159.250;1271
159.313;1274
159.375;1279
159.438;1267
159.500;1259
159.563;1264
159.625;1269
159.688;1274
159.750;1271
159.813;1279
159.875;1267
159.938;1262
160.000;1279
160.063;1267
160.125;1269
160.188;1259
160.250;1269
160.313;1269
160.375;1274
160.438;1274
160.500;1264
160.563;1274
160.625;1262
160.688;1274
160.750;1271
160.813;1264
160.875;1271
160.938;1264
161.000;1259
161.063;1269
161.125;1264
161.188;1259
161.250;1267
161.313;1267
161.375;1267
161.438;1264
161.500;1301
161.563;1296
161.625;1308
161.688;1311
161.750;1289
161.813;1269
161.875;1259
161.938;1252
162.000;1257
162.063;1254
162.125;1274
162.188;1271
162.250;1259
162.313;1271
162.375;1269
162.438;1262
162.500;1279
162.563;1267
162.625;1267
162.688;1264
162.750;1279
162.813;1286
162.875;1279
162.938;1267
163.000;1262
163.063;1276
163.125;1269
163.188;1267
163.250;1262
163.313;1264
163.375;1274
163.438;1269
163.500;1267
163.563;1276
163.625;1279
163.688;1286
163.750;1276
163.813;1276
163.875;1276
163.938;1279
164.000;1276
164.063;1279
164.125;1274
164.188;1271
164.250;1274
164.313;1269
164.375;1271
164.438;1279
164.500;1269
164.563;1279
164.625;1276
164.688;1271
164.750;1284
164.813;1279
164.875;1264
164.938;1259
165.000;1274
165.063;1271
165.125;1274
165.188;1276
165.250;1262
165.313;1279
165.375;1284
165.438;1279
165.500;1279
165.563;1271
165.625;1267
165.688;1279
165.750;1276
165.813;1276
165.875;1281
165.938;1267
166.000;1269
166.063;1274
166.125;1274
166.188;1279
166.250;1274
166.313;1269
166.375;1274
166.438;1279
166.500;1320
166.563;1499
166.625;1650
166.688;1730
166.750;1721
166.813;1660
166.875;1647
166.938;1469
167.000;1303
167.063;1271
167.125;1289
167.188;1284
167.250;1269
167.313;1276
167.375;1271
167.438;1279
167.500;1279
167.563;1267
167.625;1286
167.688;1274
167.750;1269
167.813;1303
167.875;1447
167.938;1557
168.000;1630
168.063;1594
168.125;1542
168.188;1511
168.250;1354
168.313;1293
168.375;1274
168.438;1264
168.500;1271
168.563;1276
168.625;1276
168.688;1286
168.750;1274
168.813;1274
168.875;1276
168.938;1274
169.000;1269
169.063;1271
169.125;1267
169.188;1271
169.250;1267
169.313;1271
169.375;1276
169.438;1264
169.500;1271
169.563;1267
169.625;1276
169.688;1364
169.750;1596
169.813;1704
169.875;1779
169.938;1730
170.000;1691
170.063;1650
170.125;1435
170.188;1291
170.250;1267
170.313;1252
170.375;1279
170.438;1271
170.500;1259
170.563;1267
170.625;1262
170.688;1276
170.750;1276
170.813;1262
170.875;1264
170.938;1271
171.000;1271
171.063;1276
171.125;1250
171.188;1240
171.250;1245
171.313;1259
171.375;1245
171.438;1259
171.500;1257
171.563;1259
171.625;1257
171.688;1252
171.750;1264
171.813;1252
171.875;1274
171.938;1308
172.000;1320
172.063;1308
172.125;1289
172.188;1281
172.250;1279
172.313;1264
172.375;1254
172.438;1259
172.500;1267
172.563;1257
172.625;1259
172.688;1271
172.750;1279
172.813;1320
172.875;1477
172.938;1743
173.000;1853
173.063;1923
173.125;1882
173.188;1838
173.250;1813
173.313;1586
173.375;1354
173.438;1271
173.500;1264
173.563;1274
173.625;1330
173.688;1550
173.750;1689
173.813;1767
173.875;1750
173.938;1691
174.000;1674
174.063;1484
174.125;1313
174.188;1257
174.250;1281
174.313;1262
174.375;1259
174.438;1262
174.500;1267
174.563;1259
174.625;1264
174.688;1271
174.750;1262
174.813;1269
174.875;1259
174.938;1269
175.000;1271
175.063;1264
175.125;1262
175.188;1264
175.250;1259
175.313;1274
175.375;1274
175.438;1271
175.500;1262
175.563;1259
175.625;1269
175.688;1271
175.750;1262
175.813;1279
175.875;1271
175.938;1267
176.000;1274
176.063;1271
176.125;1269
176.188;1276
176.250;1269
176.313;1262
176.375;1271
176.438;1257
176.500;1269
176.563;1276
176.625;1267
176.688;1262
176.750;1267
176.813;1271
176.875;1276
176.938;1281
177.000;1301
177.063;1293
177.125;1308
177.188;1291
177.250;1281
177.313;1257
177.375;1281
177.438;1274
177.500;1269
177.563;1269
177.625;1264
177.688;1267
177.750;1284
177.813;1276
177.875;1284
177.938;1281
178.000;1264
178.063;1269
178.125;1254
178.188;1264
178.250;1274
178.313;1284
178.375;1259
178.438;1264
178.500;1269
178.563;1271
178.625;1269
178.688;1264
178.750;1269
178.813;1269
178.875;1279
178.938;1267
179.000;1269
179.063;1259
179.125;1267
179.188;1274
179.250;1276
179.313;1276
179.375;1267
179.438;1271
179.500;1279
179.563;1271
179.625;1271
179.688;1271
179.750;1269
179.813;1276
179.875;1269
179.938;1264
180.000;1279
180.063;1264
180.125;1269
180.188;1274
180.250;1264
180.313;1276
180.375;1279
180.438;1274
180.500;1279
180.563;1286
180.625;1271
180.688;1281
180.750;1269
180.813;1271
180.875;1271
180.938;1281
181.000;1274
181.063;1276
181.125;1281
181.188;1279
181.250;1289
181.313;1281
181.375;1293
181.438;1279
181.500;1279
181.563;1271
181.625;1279
181.688;1269
181.750;1274
181.813;1274
181.875;1264
181.938;1276
182.000;1274
182.063;1269
182.125;1276
182.188;1274
182.250;1269
182.313;1284
182.375;1267
182.438;1284
182.500;1269
182.563;1267
182.625;1267
182.688;1271
182.750;1269
182.813;1274
182.875;1269
182.938;1269
183.000;1274
183.063;1271
183.125;1279
183.188;1267
183.250;1276
183.313;1271
183.375;1271
183.438;1276
183.500;1274
183.563;1267
183.625;1267
183.688;1264
183.750;1257
183.813;1267
183.875;1262
183.938;1271
184.000;1274
184.063;1271
184.125;1264
184.188;1281
184.250;1269
184.313;1262
184.375;1274
184.438;1271
184.500;1267
184.563;1269
184.625;1262
184.688;1271
184.750;1262
184.813;1257
184.875;1267
184.938;1252
185.000;1267
185.063;1271
185.125;1264
185.188;1271
185.250;1286
185.313;1271
185.375;1271
185.438;1269
185.500;1264
185.563;1259
185.625;1264
185.688;1259
185.750;1262
185.813;1264
185.875;1257
185.938;1279
186.000;1269
186.063;1271
186.125;1274
186.188;1276
186.250;1264
186.313;1257
186.375;1264
186.438;1259
186.500;1254
186.563;1262
186.625;1252
186.688;1257
186.750;1257
186.813;1252
186.875;1250
186.938;1254
187.000;1252
187.063;1254
187.125;1250
187.188;1259
187.250;1262
187.313;1269
187.375;1264
187.438;1267
187.500;1250
187.563;1262
187.625;1247
187.688;1250
187.750;1247
187.813;1250
187.875;1250
187.938;1250
188.000;1259
188.063;1254
188.125;1250
188.188;1247
188.250;1247
188.313;1250
188.375;1259
188.438;1250
188.500;1240
188.563;1245
188.625;1242
188.688;1250
188.750;1250
188.813;1245
188.875;1257
188.938;1245
189.000;1247
189.063;1250
189.125;1240
189.188;1245
189.250;1250
189.313;1242
189.375;1247
189.438;1245
189.500;1247
189.563;1242
189.625;1235
189.688;1245
189.750;1247
189.813;1242
189.875;1250
189.938;1254
190.000;1252
190.063;1245
190.125;1257
190.188;1245
190.250;1247
190.313;1237
190.375;1252
190.438;1254
190.500;1240
190.563;1245
190.625;1247
190.688;1242
190.750;1247
190.813;1242
190.875;1242
190.938;1242
191.000;1240
191.063;1252
191.125;1252
191.188;1254
191.250;1247
191.313;1250
191.375;1245
191.438;1240
191.500;1237
191.563;1242
191.625;1237
191.688;1250
191.750;1254
191.813;1240
191.875;1267
191.938;1374
192.000;1479
192.063;1545
192.125;1494
192.188;1450
192.250;1416
192.313;1289
192.375;1257
192.438;1252
192.500;1242
192.563;1250
192.625;1240
192.688;1254
192.750;1237
192.813;1252
192.875;1250
192.938;1250
193.000;1247
193.063;1240
193.125;1240
193.188;1250
193.250;1247
193.313;1237
193.375;1240
193.438;1242
193.500;1257
193.563;1242
193.625;1247
193.688;1247
193.750;1250
193.813;1237
193.875;1245
193.938;1245
194.000;1252
194.063;1262
194.125;1264
194.188;1257
194.250;1254
194.313;1247
194.375;1250
194.438;1245
194.500;1242
194.563;1232
194.625;1232
194.688;1240
194.750;1250
194.813;1245
194.875;1242
194.938;1254
195.000;1237
195.063;1245
195.125;1247
195.188;1242
195.250;1242
195.313;1247
195.375;1250
195.438;1235
195.500;1242
195.563;1250
195.625;1252
195.688;1245
195.750;1237
195.813;1257
195.875;1240
195.938;1250
196.000;1262
196.063;1286
196.125;1333
196.188;1525
196.250;1621
196.313;1704
196.375;1667
196.438;1613
196.500;1596
196.563;1379
196.625;1267
196.688;1247
196.750;1257
196.813;1250
196.875;1245
196.938;1247
197.000;1245
197.063;1247
197.125;1242
197.188;1245
197.250;1250
197.313;1242
197.375;1245
197.438;1247
197.500;1240
197.563;1250
197.625;1232
197.688;1240
197.750;1240
197.813;1252
197.875;1257
197.938;1257
198.000;1237
198.063;1250
198.125;1262
198.188;1245
198.250;1245
198.313;1240
198.375;1237
198.438;1254
198.500;1242
198.563;1240
198.625;1242
198.688;1235
198.750;1245
198.813;1247
198.875;1250
198.938;1245
199.000;1247
199.063;1240
199.125;1250
199.188;1247
199.250;1252
199.313;1257
199.375;1240
199.438;1242
199.500;1247
199.563;1247
199.625;1235
199.688;1250
199.750;1242
199.813;1237
199.875;1242
199.938;1245
200.000;1250
200.063;1250
200.125;1247
200.188;1247
200.250;1262
200.313;1252
200.375;1257
200.438;1242
200.500;1240
200.563;1245
200.625;1257
200.688;1245
200.750;1250
200.813;1247
200.875;1250
200.938;1245
201.000;1240
201.063;1252
201.125;1245
201.188;1254
201.250;1245
201.313;1257
201.375;1247
201.438;1240
201.500;1245
201.563;1245
201.625;1267
201.688;1381
201.750;1499
201.813;1577
201.875;1528
201.938;1479
202.000;1459
202.063;1296
202.125;1240
202.188;1242
202.250;1250
202.313;1245
202.375;1245
202.438;1250
202.500;1245
202.563;1252
202.625;1252
202.688;1245
202.750;1242
202.813;1245
202.875;1247
202.938;1247
203.000;1254
203.063;1247
203.125;1245
203.188;1240
203.250;1252
203.313;1250
203.375;1252
203.438;1254
203.500;1245
203.563;1250
203.625;1242
203.688;1252
203.750;1252
203.813;1247
203.875;1237
203.938;1250
204.000;1250
204.063;1250
204.125;1259
204.188;1252
204.250;1250
204.313;1247
204.375;1247
204.438;1247
204.500;1245
204.563;1252
204.625;1245
204.688;1250
204.750;1252
204.813;1250
204.875;1250
204.938;1240
205.000;1237
205.063;1237
205.125;1247
205.188;1242
205.250;1247
205.313;1250
205.375;1247
205.438;1250
205.500;1250
205.563;1242
205.625;1250
205.688;1247
205.750;1252
205.813;1242
205.875;1235
205.938;1250
206.000;1245
206.063;1254
206.125;1252
206.188;1247
206.250;1250
206.313;1242
206.375;1247
206.438;1247
206.500;1240
206.563;1254
206.625;1247
206.688;1250
206.750;1247
206.813;1247
206.875;1250
206.938;1250
207.000;1245
207.063;1252
207.125;1250
207.188;1252
207.250;1240
207.313;1252
207.375;1250
207.438;1254
207.500;1257
207.563;1279
207.625;1259
207.688;1259
207.750;1252
207.813;1242
207.875;1242
207.938;1254
208.000;1247
208.063;1247
208.125;1242
208.188;1254
208.250;1242
208.313;1240
208.375;1245
208.438;1242
208.500;1237
208.563;1247
208.625;1245
208.688;1245
208.750;1250
208.813;1252
208.875;1232
208.938;1250
209.000;1242
209.063;1247
209.125;1245
209.188;1240
209.250;1242
209.313;1245
209.375;1245
209.438;1250
209.500;1245
209.563;1245
209.625;1245
209.688;1240
209.750;1242
209.813;1242
209.875;1245
209.938;1254
210.000;1250
210.063;1247
210.125;1254
210.188;1252
210.250;1247
210.313;1247
210.375;1250
210.438;1250
210.500;1247
210.563;1250
210.625;1245
210.688;1242
210.750;1242
210.813;1240
210.875;1242
210.938;1247
211.000;1254
211.063;1247
211.125;1242
211.188;1235
211.250;1250
211.313;1242
211.375;1245
211.438;1250
211.500;1245
211.563;1250
211.625;1250
211.688;1235
211.750;1237
211.813;1250
211.875;1245
211.938;1235
212.000;1250
212.063;1240
212.125;1242
212.188;1240
212.250;1242
212.313;1240
212.375;1250
212.438;1240
212.500;1237
212.563;1245
212.625;1247
212.688;1245
212.750;1247
212.813;1252
212.875;1245
212.938;1245
213.000;1247
213.063;1245
213.125;1237
213.188;1245
213.250;1247
213.313;1240
213.375;1247
213.438;1247
213.500;1252
213.563;1240
213.625;1247
213.688;1247
213.750;1242
213.813;1232
213.875;1242
213.938;1245
214.000;1247
214.063;1254
214.125;1269
214.188;1269
214.250;1245
214.313;1242
214.375;1237
214.438;1247
214.500;1252
214.563;1250
214.625;1245
214.688;1242
214.750;1250
214.813;1235
214.875;1232
214.938;1242
215.000;1237
215.063;1242
215.125;1250
215.188;1250
215.250;1245
215.313;1245
215.375;1245
215.438;1252
215.500;1240
215.563;1240
215.625;1242
215.688;1237
215.750;1247
215.813;1237
215.875;1245
215.938;1247
216.000;1252
216.063;1257
216.125;1245
216.188;1254
216.250;1254
216.313;1240
216.375;1237
216.438;1240
216.500;1237
216.563;1237
216.625;1242
216.688;1252
216.750;1252
216.813;1235
216.875;1242
216.938;1250
217.000;1240
217.063;1247
217.125;1250
217.188;1240
217.250;1245
217.313;1257
217.375;1250
217.438;1247
217.500;1252
217.563;1240
217.625;1240
217.688;1242
217.750;1242
217.813;1232
217.875;1247
217.938;1252
218.000;1257
218.063;1259
218.125;1254
218.188;1247
218.250;1250
218.313;1240
218.375;1230
218.438;1250
218.500;1247
218.563;1240
218.625;1237
218.688;1242
218.750;1252
218.813;1237
218.875;1247
218.938;1240
219.000;1247
219.063;1240
219.125;1230
219.188;1237
219.250;1237
219.313;1240
219.375;1242
219.438;1242
219.500;1232
219.563;1240
219.625;1240
219.688;1240
219.750;1245
219.813;1240
219.875;1237
219.938;1240
220.000;1252
220.063;1259
220.125;1247
220.188;1247
220.250;1252
220.313;1245
220.375;1232
220.438;1252
220.500;1250
220.563;1237
220.625;1232
220.688;1237
220.750;1245
220.813;1237
220.875;1237
220.938;1232
221.000;1247
221.063;1242
221.125;1235
221.188;1254
221.250;1240
221.313;1247
221.375;1242
221.438;1232
221.500;1240
221.563;1245
221.625;1240
221.688;1237
221.750;1247
221.813;1250
221.875;1235
221.938;1252
222.000;1245
222.063;1240
222.125;1247
222.188;1245
222.250;1242
222.313;1235
222.375;1242
222.438;1250
222.500;1247
222.563;1232
222.625;1250
222.688;1237
222.750;1242
222.813;1245
222.875;1240
222.938;1245
223.000;1235
223.063;1240
223.125;1240
223.188;1240
223.250;1247
223.313;1252
223.375;1240
223.438;1242
223.500;1242
223.563;1254
223.625;1235
223.688;1245
223.750;1242
223.813;1247
223.875;1235
223.938;1247
224.000;1247
224.063;1245
224.125;1247
224.188;1240
224.250;1245
224.313;1245
224.375;1240
224.438;1245
224.500;1240
224.563;1242
224.625;1237
224.688;1245
224.750;1235
224.813;1242
224.875;1252
224.938;1240
225.000;1232
225.063;1240
225.125;1247
225.188;1237
225.250;1240
225.313;1240
225.375;1247
225.438;1240
225.500;1240
225.563;1242
225.625;1240
225.688;1237
225.750;1247
225.813;1250
225.875;1245
225.938;1247
226.000;1254
226.063;1240
226.125;1242
226.188;1242
226.250;1245
226.313;1250
226.375;1242
226.438;1240
226.500;1230
226.563;1242
226.625;1232
226.688;1245
226.750;1240
226.813;1247
226.875;1245
226.938;1240
227.000;1237
227.063;1250
227.125;1247
227.188;1240
227.250;1247
227.313;1245
227.375;1237
227.438;1245
227.500;1237
227.563;1242
227.625;1232
227.688;1247
227.750;1237
227.813;1245
227.875;1250
227.938;1235
228.000;1264
228.063;1259
228.125;1254
228.188;1259
228.250;1250
228.313;1250
228.375;1242
228.438;1240
228.500;1242
228.563;1235
228.625;1245
228.688;1245
228.750;1252
228.813;1245
228.875;1242
228.938;1235
229.000;1237
229.063;1245
229.125;1250
229.188;1247
229.250;1240
229.313;1240
229.375;1242
229.438;1232
229.500;1250
229.563;1237
229.625;1240
229.688;1250
229.750;1240
229.813;1232
229.875;1245
229.938;1242
230.000;1247
230.063;1259
230.125;1252
230.188;1257
230.250;1250
230.313;1250
230.375;1250
230.438;1242
230.500;1235
230.563;1245
230.625;1254
230.688;1240
230.750;1235
230.813;1232
230.875;1250
230.938;1240
231.000;1242
231.063;1240
231.125;1240
231.188;1250
231.250;1247
231.313;1242
231.375;1250
231.438;1250
231.500;1242
231.563;1247
231.625;1247
231.688;1247
231.750;1250
231.813;1247
231.875;1245
231.938;1242
232.000;1247
232.063;1267
232.125;1252
232.188;1247
232.250;1245
232.313;1237
232.375;1245
232.438;1245
232.500;1240
232.563;1240
232.625;1245
232.688;1252
232.750;1245
232.813;1245
232.875;1254
232.938;1250
233.000;1245
233.063;1250
233.125;1247
233.188;1254
233.250;1242
233.313;1245
233.375;1247
233.438;1240
233.500;1252
233.563;1237
233.625;1250
233.688;1245
233.750;1250
233.813;1245
233.875;1240
233.938;1235
234.000;1240
234.063;1245
234.125;1250
234.188;1240
234.250;1250
234.313;1245
234.375;1250
234.438;1237
234.500;1237
234.563;1247
234.625;1247
234.688;1240
234.750;1245
234.813;1245
234.875;1250
234.938;1250
235.000;1237
235.063;1237
235.125;1247
235.188;1250
235.250;1235
235.313;1247
235.375;1242
235.438;1252
235.500;1250
235.563;1242
235.625;1245
235.688;1237
235.750;1242
235.813;1262
235.875;1237
235.938;1240
236.000;1252
236.063;1245
236.125;1250
236.188;1242
236.250;1235
236.313;1240
236.375;1245
236.438;1245
236.500;1245
236.563;1242
236.625;1242
236.688;1240
236.750;1242
236.813;1240
236.875;1245
236.938;1245
237.000;1245
237.063;1247
237.125;1250
237.188;1237
237.250;1250
237.313;1247
237.375;1252
237.438;1240
237.500;1245
237.563;1237
237.625;1247
237.688;1242
237.750;1240
237.813;1237
237.875;1245
237.938;1240
238.000;1235
238.063;1240
238.125;1237
238.188;1245
238.250;1250
238.313;1247
238.375;1235
238.438;1237
238.500;1242
238.563;1242
238.625;1245
238.688;1247
238.750;1237
238.813;1245
238.875;1240
238.938;1250
239.000;1245
239.063;1240
239.125;1250
239.188;1237
239.250;1242
239.313;1240
239.375;1237
239.438;1245
239.500;1242
239.563;1247
239.625;1240
239.688;1245
239.750;1230
239.813;1245
239.875;1242
239.938;1245
240.000;1237
240.063;1242
240.125;1232
240.188;1235
240.250;1240
240.313;1242
240.375;1240
240.438;1242
240.500;1240
240.563;1250
240.625;1245
240.688;1237
240.750;1240
240.813;1250
240.875;1250
240.938;1245
241.000;1240
241.063;1240
241.125;1235
241.188;1250
241.250;1240
241.313;1250
241.375;1240
241.438;1245
241.500;1245
241.563;1242
241.625;1242
241.688;1242
241.750;1252
241.813;1245
241.875;1235
241.938;1245
242.000;1245
242.063;1242
242.125;1250
242.188;1242
242.250;1242
242.313;1237
242.375;1245
242.438;1247
242.500;1247
242.563;1252
242.625;1254
242.688;1242
242.750;1240
242.813;1245
242.875;1245
242.938;1247
243.000;1235
243.063;1242
243.125;1250
243.188;1242
243.250;1237
243.313;1242
243.375;1245
243.438;1242
243.500;1240
243.563;1245
243.625;1245
243.688;1252
243.750;1240
243.813;1254
243.875;1267
243.938;1262
244.000;1264
244.063;1279
244.125;1293
244.188;1311
244.250;1289
244.313;1284
244.375;1257
244.438;1252
244.500;1237
244.563;1242
244.625;1250
244.688;1242
244.750;1245
244.813;1250
244.875;1250
244.938;1252
245.000;1245
245.063;1247
245.125;1247
245.188;1237
245.250;1245
245.313;1254
245.375;1254
245.438;1247
245.500;1250
245.563;1252
245.625;1245
245.688;1235
245.750;1254
245.813;1252
245.875;1247
245.938;1250
246.000;1250
246.063;1245
246.125;1242
246.188;1242
246.250;1242
246.313;1247
246.375;1245
246.438;1237
246.500;1242
246.563;1245
246.625;1240
246.688;1245
246.750;1245
246.813;1245
246.875;1242
246.938;1235
247.000;1247
247.063;1237
247.125;1235
247.188;1247
247.250;1237
247.313;1245
247.375;1250
247.438;1247
247.500;1245
247.563;1242
247.625;1240
247.688;1245
247.750;1235
247.813;1245
247.875;1250
247.938;1242
248.000;1250
248.063;1245
248.125;1247
248.188;1245
248.250;1247
248.313;1242
248.375;1245
248.438;1252
248.500;1237
248.563;1250
248.625;1252
248.688;1252
248.750;1240
248.813;1250
248.875;1247
248.938;1267
249.000;1262
249.063;1262
249.125;1262
249.188;1257
249.250;1262
249.313;1267
249.375;1267
249.438;1271
249.500;1259
249.563;1254
249.625;1257
249.688;1252
249.750;1245
249.813;1240
249.875;1250
249.938;1247
250.000;1247
250.063;1250
250.125;1245
250.188;1245
250.250;1250
250.313;1254
250.375;1242
250.438;1247
250.500;1250
250.563;1250
250.625;1262
250.688;1267
250.750;1286
250.813;1264
250.875;1274
250.938;1245
251.000;1242
251.063;1257
251.125;1247
251.188;1237
251.250;1242
251.313;1252
251.375;1245
251.438;1252
251.500;1245
251.563;1247
251.625;1247
251.688;1252
251.750;1250
251.813;1254
251.875;1264
251.938;1271
252.000;1259
252.063;1271
252.125;1281
252.188;1284
252.250;1298
252.313;1281
252.375;1271
252.438;1257
252.500;1257
252.563;1237
252.625;1237
252.688;1240
252.750;1242
252.813;1237
252.875;1245
252.938;1240
253.000;1240
253.063;1237
253.125;1237
253.188;1230
253.250;1245
253.313;1240
253.375;1240
253.438;1247
253.500;1262
253.563;1242
253.625;1250
253.688;1252
253.750;1257
253.813;1267
253.875;1279
253.938;1293
254.000;1281
254.063;1271
254.125;1267
254.188;1247
254.250;1242
254.313;1245
254.375;1242
254.438;1232
254.500;1257
254.563;1247
254.625;1245
254.688;1252
254.750;1254
254.813;1240
254.875;1235
254.938;1240
255.000;1245
255.063;1250
255.125;1240
255.188;1240
255.250;1242
255.313;1240
255.375;1247
255.438;1250
255.500;1276
255.563;1291
255.625;1320
255.688;1293
255.750;1289
255.813;1267
255.875;1252
255.938;1247
256.000;1250
256.063;1240
256.125;1240
256.188;1235
256.250;1245
256.313;1247
256.375;1235
256.438;1230
256.500;1242
256.563;1259
256.625;1245
256.688;1247
256.750;1245
256.813;1252
256.875;1252
256.938;1269
257.000;1264
257.063;1262
257.125;1276
257.188;1284
257.250;1274
257.313;1262
257.375;1262
257.438;1247
257.500;1242
257.563;1252
257.625;1242
257.688;1252
257.750;1254
257.813;1250
257.875;1264
257.938;1245
258.000;1250
258.063;1245
258.125;1245
258.188;1242
258.250;1240
258.313;1254
258.375;1250
258.438;1254
258.500;1257
258.563;1259
258.625;1271
258.688;1289
258.750;1286
258.813;1271
258.875;1264
258.938;1254
259.000;1250
259.063;1242
259.125;1242
259.188;1254
259.250;1262
259.313;1293
259.375;1286
259.438;1276
259.500;1276
259.563;1245
259.625;1245
259.688;1242
259.750;1237
259.813;1237
259.875;1245
259.938;1250
260.000;1230
260.063;1247
260.125;1240
260.188;1237
260.250;1235
260.313;1250
260.375;1242
260.438;1242
260.500;1237
260.563;1267
260.625;1257
260.688;1262
260.750;1264
260.813;1252
260.875;1259
260.938;1252
261.000;1240
261.063;1237
261.125;1240
261.188;1245
261.250;1247
261.313;1242
261.375;1247
261.438;1247
261.500;1247
261.563;1242
261.625;1245
261.688;1257
261.750;1267
261.813;1252
261.875;1274
261.938;1293
262.000;1311
262.063;1284
262.125;1284
262.188;1267
262.250;1267
262.313;1284
262.375;1284
262.438;1267
262.500;1271
262.563;1259
262.625;1247
262.688;1247
262.750;1245
262.813;1240
262.875;1232
262.938;1235
263.000;1254
263.063;1247
263.125;1237
263.188;1247
263.250;1235
263.313;1247
263.375;1250
263.438;1240
263.500;1245
263.563;1240
263.625;1257
263.688;1262
263.750;1257
263.813;1269
263.875;1267
263.938;1252
264.000;1257
264.063;1259
264.125;1257
264.188;1245
264.250;1252
264.313;1250
264.375;1240
264.438;1240
264.500;1240
264.563;1245
264.625;1240
264.688;1247
264.750;1257
264.813;1247
264.875;1247
264.938;1250
265.000;1237
265.063;1242
265.125;1237
265.188;1240
265.250;1250
265.313;1245
265.375;1254
265.438;1262
265.500;1259
265.563;1259
265.625;1245
265.688;1245
265.750;1240
265.813;1252
265.875;1237
265.938;1245
266.000;1252
266.063;1247
266.125;1247
266.188;1254
266.250;1257
266.313;1267
266.375;1254
266.438;1259
266.500;1254
266.563;1250
266.625;1245
266.688;1250
266.750;1247
266.813;1250
266.875;1257
266.938;1250
267.000;1259
267.063;1267
267.125;1271
267.188;1264
267.250;1262
267.313;1247
267.375;1247
267.438;1245
267.500;1250
267.563;1240
267.625;1245
267.688;1254
267.750;1250
267.813;1235
267.875;1257
267.938;1254
268.000;1247
268.063;1245
268.125;1240
268.188;1235
268.250;1245
268.313;1254
268.375;1252
268.438;1259
268.500;1267
268.563;1264
268.625;1250
268.688;1245
268.750;1242
268.813;1240
268.875;1242
268.938;1237
269.000;1242
269.063;1242
269.125;1242
269.188;1240
269.250;1245
269.313;1237
269.375;1245
269.438;1245
269.500;1240
269.563;1230
269.625;1250
269.688;1245
269.750;1252
269.813;1259
269.875;1254
269.938;1267
270.000;1286
270.063;1267
270.125;1262
270.188;1252
270.250;1250
270.313;1252
270.375;1247
270.438;1250
270.500;1242
270.563;1250
270.625;1242
270.688;1252
270.750;1245
270.813;1242
270.875;1235
270.938;1235
271.000;1242
271.063;1245
271.125;1247
271.188;1247
271.250;1245
271.313;1235
271.375;1252
271.438;1250
271.500;1254
271.563;1240
271.625;1247
271.688;1242
271.750;1247
271.813;1235
271.875;1242
271.938;1235
272.000;1247
272.063;1252
272.125;1247
272.188;1245
272.250;1240
272.313;1247
272.375;1240
272.438;1247
272.500;1240
272.563;1245
272.625;1237
272.688;1237
272.750;1242
272.813;1250
272.875;1247
272.938;1254
273.000;1247
273.063;1245
273.125;1257
273.188;1242
273.250;1250
273.313;1250
273.375;1250
273.438;1252
273.500;1252
273.563;1252
273.625;1237
273.688;1242
273.750;1240
273.813;1254
273.875;1250
273.938;1242
274.000;1245
274.063;1247
274.125;1240
274.188;1240
274.250;1252
274.313;1240
274.375;1247
274.438;1230
274.500;1262
274.563;1237
274.625;1240
274.688;1250
274.750;1242
274.813;1237
274.875;1247
274.938;1232
275.000;1242
275.063;1237
275.125;1250
275.188;1245
275.250;1232
275.313;1240
275.375;1252
275.438;1237
275.500;1242
275.563;1257
275.625;1242
275.688;1245
275.750;1250
275.813;1240
275.875;1235
275.938;1237
276.000;1245
276.063;1252
276.125;1240
276.188;1240
276.250;1250
276.313;1240
276.375;1247
276.438;1250
276.500;1250
276.563;1252
276.625;1247
276.688;1242
276.750;1245
276.813;1242
276.875;1242
276.938;1254
277.000;1237
277.063;1235
277.125;1247
277.188;1232
277.250;1237
277.313;1254
277.375;1257
277.438;1240
277.500;1242
277.563;1245
277.625;1247
277.688;1245
277.750;1247
277.813;1247
277.875;1245
277.938;1247
278.000;1254
278.063;1240
278.125;1245
278.188;1245
278.250;1245
278.313;1235
278.375;1240
278.438;1240
278.500;1242
278.563;1250
278.625;1240
278.688;1252
278.750;1242
278.813;1242
278.875;1250
278.938;1235
279.000;1242
279.063;1245
279.125;1250
279.188;1242
279.250;1235
279.313;1250
279.375;1259
279.438;1235
279.500;1237
279.563;1240
279.625;1247
279.688;1245
279.750;1240
279.813;1235
279.875;1254
279.938;1250
280.000;1245
280.063;1242
280.125;1254
280.188;1257
280.250;1262
280.313;1269
280.375;1254
280.438;1254
280.500;1259
280.563;1237
280.625;1240
280.688;1240
280.750;1237
280.813;1250
280.875;1240
280.938;1235
281.000;1230
281.063;1250
281.125;1250
281.188;1242
281.250;1242
281.313;1252
281.375;1247
281.438;1245
281.500;1240
281.563;1237
281.625;1247
281.688;1240
281.750;1257
281.813;1250
281.875;1252
281.938;1250
282.000;1235
282.063;1240
282.125;1245
282.188;1254
282.250;1250
282.313;1242
282.375;1240
282.438;1245
282.500;1247
282.563;1245
282.625;1245
282.688;1252
282.750;1245
282.813;1245
282.875;1250
282.938;1245
283.000;1245
283.063;1242
283.125;1245
283.188;1245
283.250;1257
283.313;1242
283.375;1235
283.438;1247
283.500;1250
283.563;1247
283.625;1237
283.688;1242
283.750;1235
283.813;1240
283.875;1242
283.938;1235
284.000;1247
284.063;1250
284.125;1242
284.188;1252
284.250;1247
284.313;1250
284.375;1237
284.438;1250
284.500;1237
284.563;1245
284.625;1235
284.688;1242
284.750;1237
284.813;1242
284.875;1237
284.938;1245
285.000;1250
285.063;1245
285.125;1247
285.188;1232
285.250;1250
285.313;1254
285.375;1245
285.438;1247
285.500;1237
285.563;1235
285.625;1245
285.688;1242
285.750;1240
285.813;1245
285.875;1240
285.938;1240
286.000;1250
286.063;1240
286.125;1237
286.188;1257
286.250;1250
286.313;1240
286.375;1250
286.438;1245
286.500;1240
286.563;1247
286.625;1237
286.688;1252
286.750;1237
286.813;1242
286.875;1240
286.938;1242
287.000;1240
287.063;1250
287.125;1242
287.188;1250
287.250;1245
287.313;1250
287.375;1240
287.438;1250
287.500;1247
287.563;1250
287.625;1245
287.688;1232
287.750;1245
287.813;1247
287.875;1245
287.938;1245
288.000;1247
288.063;1254
288.125;1259
288.188;1252
288.250;1247
288.313;1245
288.375;1235
288.438;1259
288.500;1245
288.563;1240
288.625;1247
288.688;1247
288.750;1237
288.813;1240
288.875;1247
288.938;1240
289.000;1250
289.063;1235
289.125;1232
289.188;1235
289.250;1240
289.313;1250
289.375;1242
289.438;1245
289.500;1254
289.563;1237
289.625;1240
289.688;1247
289.750;1242
289.813;1242
289.875;1245
289.938;1235
290.000;1259
290.063;1240
290.125;1230
290.188;1257
290.250;1245
290.313;1237
290.375;1257
290.438;1245
290.500;1247
290.563;1242
290.625;1242
290.688;1242
290.750;1250
290.813;1240
290.875;1250
290.938;1250
291.000;1245
291.063;1245
291.125;1230
291.188;1240
291.250;1252
291.313;1247
291.375;1240
291.438;1257
291.500;1235
291.563;1250
291.625;1240
291.688;1242
291.750;1250
291.813;1242
291.875;1242
291.938;1252
292.000;1247
292.063;1245
292.125;1252
292.188;1252
292.250;1235
292.313;1247
292.375;1247
292.438;1245
292.500;1250
292.563;1250
292.625;1242
292.688;1245
292.750;1240
292.813;1247
292.875;1240
292.938;1242
293.000;1242
293.063;1242
293.125;1237
293.188;1245
293.250;1245
293.313;1242
293.375;1237
293.438;1232
293.500;1250
293.563;1250
293.625;1245
293.688;1250
293.750;1237
293.813;1237
293.875;1257
293.938;1245
294.000;1247
294.063;1257
294.125;1247
294.188;1254
294.250;1247
294.313;1237
294.375;1257
294.438;1245
294.500;1250
294.563;1250
294.625;1242
294.688;1245
294.750;1240
294.813;1247
294.875;1235
294.938;1257
295.000;1252
295.063;1242
295.125;1240
295.188;1247
295.250;1250
295.313;1247
295.375;1235
295.438;1252
295.500;1250
295.563;1242
295.625;1240
295.688;1237
295.750;1245
295.813;1250
295.875;1262
295.938;1252
296.000;1247
296.063;1262
296.125;1252
296.188;1247
296.250;1252
296.313;1242
296.375;1240
296.438;1240
296.500;1237
296.563;1240
296.625;1237
296.688;1245
296.750;1237
296.813;1240
296.875;1247
296.938;1242
297.000;1237
297.063;1235
297.125;1242
297.188;1245
297.250;1242
297.313;1245
297.375;1245
297.438;1247
297.500;1247
297.563;1247
297.625;1245
297.688;1237
297.750;1232
297.813;1237
297.875;1237
297.938;1235
298.000;1240
298.063;1242
298.125;1250
298.188;1245
298.250;1242
298.313;1245
298.375;1245
298.438;1245
298.500;1240
298.563;1242
298.625;1254
298.688;1240
298.750;1245
298.813;1247
298.875;1245
298.938;1235
299.000;1245
299.063;1237
299.125;1247
299.188;1242
299.250;1242
299.313;1242
299.375;1245
299.438;1240
299.500;1245
299.563;1247
299.625;1237
299.688;1242
299.750;1237
299.813;1250
299.875;1245
299.938;1254
300.000;1245
300.063;1235
300.125;1254
300.188;1250
300.250;1245
300.313;1237
300.375;1250
300.438;1235
300.500;1250
300.563;1240
300.625;1247
300.688;1240
300.750;1245
300.813;1250
300.875;1240
300.938;1245
301.000;1247
301.063;1250
301.125;1247
301.188;1259
301.250;1247
301.313;1237
301.375;1245
301.438;1242
301.500;1247
301.563;1252
301.625;1240
301.688;1242
301.750;1247
301.813;1242
301.875;1240
301.938;1242
302.000;1245
302.063;1247
302.125;1250
302.188;1235
302.250;1250
302.313;1247
302.375;1242
302.438;1240
302.500;1245
302.563;1245
302.625;1230
302.688;1242
302.750;1250
302.813;1237
302.875;1232
302.938;1245
303.000;1247
303.063;1232
303.125;1245
303.188;1237
303.250;1259
303.313;1242
303.375;1252
303.438;1262
303.500;1250
303.563;1250
303.625;1235
303.688;1235
303.750;1247
303.813;1240
303.875;1237
303.938;1250
304.000;1254
304.063;1242
304.125;1250
304.188;1250
304.250;1245
304.313;1245
304.375;1252
304.438;1250
304.500;1250
304.563;1250
304.625;1247
304.688;1240
304.750;1232
304.813;1242
304.875;1247
304.938;1245
305.000;1242
305.063;1245
305.125;1232
305.188;1242
305.250;1237
305.313;1240
305.375;1252
305.438;1242
305.500;1240
305.563;1245
305.625;1237
305.688;1245
305.750;1245
305.813;1252
305.875;1230
305.938;1245
306.000;1247
306.063;1262
306.125;1257
306.188;1257
306.250;1247
306.313;1242
306.375;1245
306.438;1245
306.500;1240
306.563;1240
306.625;1247
306.688;1250
306.750;1240
306.813;1254
306.875;1252
306.938;1250
307.000;1245
307.063;1250
307.125;1245
307.188;1247
307.250;1237
307.313;1228
307.375;1240
307.438;1245
307.500;1240
307.563;1245
307.625;1242
307.688;1245
307.750;1247
307.813;1245
307.875;1245
307.938;1240
308.000;1250
308.063;1245
308.125;1252
308.188;1245
308.250;1259
308.313;1235
308.375;1242
308.438;1247
308.500;1247
308.563;1250
308.625;1252
308.688;1257
308.750;1252
308.813;1245
308.875;1250
308.938;1235
309.000;1237
309.063;1242
309.125;1240
309.188;1242
309.250;1230
309.313;1237
309.375;1242
309.438;1247
309.500;1245
309.563;1242
309.625;1240
309.688;1232
309.750;1247
309.813;1240
309.875;1240
309.938;1250
310.000;1252
310.063;1250
310.125;1237
310.188;1240
310.250;1230
310.313;1240
310.375;1252
310.438;1252
310.500;1247
310.563;1250
310.625;1240
310.688;1245
310.750;1237
310.813;1250
310.875;1245
310.938;1242
311.000;1242
311.063;1247
311.125;1240
311.188;1257
311.250;1245
311.313;1254
311.375;1254
311.438;1247
311.500;1250
311.563;1247
311.625;1247
311.688;1240
311.750;1237
311.813;1245
311.875;1240
311.938;1250
312.000;1245
312.063;1250
312.125;1237
312.188;1252
312.250;1237
312.313;1247
312.375;1230
312.438;1235
312.500;1245
312.563;1247
312.625;1242
312.688;1232
312.750;1237
312.813;1257
312.875;1235
312.938;1230
313.000;1247
313.063;1245
313.125;1242
313.188;1247
313.250;1250
313.313;1247
313.375;1254
313.438;1245
313.500;1242
313.563;1250
313.625;1245
313.688;1250
313.750;1240
313.813;1245
313.875;1242
313.938;1240
314.000;1252
314.063;1242
314.125;1247
314.188;1237
314.250;1237
314.313;1242
314.375;1235
314.438;1250
314.500;1245
314.563;1242
314.625;1247
314.688;1242
314.750;1245
314.813;1252
314.875;1250
314.938;1235
315.000;1240
315.063;1245
315.125;1247
315.188;1245
315.250;1247
315.313;1245
315.375;1237
315.438;1237
315.500;1245
315.563;1247
315.625;1242
315.688;1245
315.750;1232
315.813;1245
315.875;1237
315.938;1240
316.000;1240
316.063;1247
316.125;1240
316.188;1242
316.250;1242
316.313;1247
316.375;1247
316.438;1247
316.500;1235
316.563;1240
316.625;1252
316.688;1240
316.750;1240
316.813;1252
316.875;1240
316.938;1250
317.000;1240
317.063;1245
317.125;1240
317.188;1250
317.250;1245
317.313;1247
317.375;1247
317.438;1235
317.500;1247
317.563;1242
317.625;1250
317.688;1250
317.750;1247
317.813;1232
317.875;1250
317.938;1247
318.000;1250
318.063;1247
318.125;1232
318.188;1242
318.250;1245
318.313;1235
318.375;1242
318.438;1240
318.500;1245
318.563;1242
318.625;1247
318.688;1254
318.750;1247
318.813;1240
318.875;1250
318.938;1245
319.000;1245
319.063;1240
319.125;1237
319.188;1247
319.250;1242
319.313;1240
319.375;1245
319.438;1245
319.500;1250
319.563;1242
319.625;1240
319.688;1247
319.750;1242
319.813;1247
319.875;1247
319.938;1293
320.000;1330
320.063;1418
320.125;1342
320.188;1320
320.250;1308
320.313;1245
320.375;1240
320.438;1245
320.500;1245
320.563;1240
320.625;1245
320.688;1240
320.750;1235
320.813;1245
320.875;1257
320.938;1247
321.000;1250
321.063;1237
321.125;1247
321.188;1237
321.250;1250
321.313;1245
321.375;1242
321.438;1245
321.500;1237
321.563;1245
321.625;1237
321.688;1230
321.750;1242
321.813;1232
321.875;1240
321.938;1245
322.000;1245
322.063;1250
322.125;1242
322.188;1242
322.250;1247
322.313;1237
322.375;1247
322.438;1245
322.500;1230
322.563;1242
322.625;1250
322.688;1240
322.750;1240
322.813;1232
322.875;1250
322.938;1237
323.000;1237
323.063;1240
323.125;1254
323.188;1252
323.250;1254
323.313;1240
323.375;1245
323.438;1245
323.500;1245
323.563;1245
323.625;1240
323.688;1235
323.750;1230
323.813;1250
323.875;1245
323.938;1240
324.000;1250
324.063;1240
324.125;1242
324.188;1240
324.250;1247
324.313;1240
324.375;1237
324.438;1247
324.500;1242
324.563;1252
324.625;1232
324.688;1247
324.750;1245
324.813;1240
324.875;1252
324.938;1240
325.000;1237
325.063;1240
325.125;1252
325.188;1252
325.250;1247
325.313;1242
325.375;1247
325.438;1250
325.500;1240
325.563;1242
325.625;1240
325.688;1240
325.750;1235
325.813;1237
325.875;1245
325.938;1269
326.000;1281
326.063;1296
326.125;1352
326.188;1293
326.250;1318
326.313;1254
326.375;1242
326.438;1237
326.500;1242
326.563;1228
326.625;1247
326.688;1240
326.750;1250
326.813;1242
326.875;1247
326.938;1237
327.000;1247
327.063;1240
327.125;1247
327.188;1250
327.250;1247
327.313;1245
327.375;1250
327.438;1247
327.500;1247
327.563;1240
327.625;1237
327.688;1240
327.750;1235
327.813;1240
327.875;1250
327.938;1242
328.000;1242
328.063;1245
328.125;1245
328.188;1245
328.250;1240
328.313;1232
328.375;1237
328.438;1245
328.500;1245
328.563;1245
328.625;1242
328.688;1250
328.750;1240
328.813;1235
328.875;1242
328.938;1242
329.000;1237
329.063;1252
329.125;1242
329.188;1252
329.250;1237
329.313;1235
329.375;1245
329.438;1245
329.500;1250
329.563;1242
329.625;1245
329.688;1250
329.750;1252
329.813;1237
329.875;1240
329.938;1235
330.000;1247
330.063;1242
330.125;1250
330.188;1242
330.250;1242
330.313;1240
330.375;1245
330.438;1245
330.500;1237
330.563;1250
330.625;1240
330.688;1235
330.750;1247
330.813;1240
330.875;1250
330.938;1240
331.000;1252
331.063;1250
331.125;1240
331.188;1237
331.250;1245
331.313;1237
331.375;1254
331.438;1250
331.500;1252
331.563;1245
331.625;1245
331.688;1240
331.750;1245
331.813;1247
331.875;1245
331.938;1247
332.000;1242
332.063;1240
332.125;1247
332.188;1240
332.250;1235
332.313;1245
332.375;1242
332.438;1240
332.500;1250
332.563;1240
332.625;1237
332.688;1247
332.750;1245
332.813;1245
332.875;1247
332.938;1250
333.000;1235
333.063;1252
333.125;1240
333.188;1242
333.250;1245
333.313;1247
333.375;1237
333.438;1235
333.500;1242
333.563;1242
333.625;1245
333.688;1240
333.750;1240
333.813;1250
333.875;1247
333.938;1245
334.000;1242
334.063;1242
334.125;1252
334.188;1245
334.250;1245
334.313;1245
334.375;1247
334.438;1252
334.500;1254
334.563;1250
334.625;1235
334.688;1250
334.750;1235
334.813;1240
334.875;1235
334.938;1242
335.000;1245
335.063;1240
335.125;1245
335.188;1242
335.250;1247
335.313;1245
335.375;1250
335.438;1242
335.500;1247
335.563;1245
335.625;1242
335.688;1247
335.750;1247
335.813;1250
335.875;1250
335.938;1232
336.000;1240
336.063;1250
336.125;1247
336.188;1250
336.250;1252
336.313;1242
336.375;1242
336.438;1257
336.500;1240
336.563;1240
336.625;1240
336.688;1245
336.750;1257
336.813;1247
336.875;1235
336.938;1257
337.000;1250
337.063;1247
337.125;1242
337.188;1232
337.250;1247
337.313;1247
337.375;1237
337.438;1245
337.500;1235
337.563;1242
337.625;1245
337.688;1242
337.750;1237
337.813;1247
337.875;1250
337.938;1250
338.000;1237
338.063;1250
338.125;1247
338.188;1247
338.250;1237
338.313;1247
338.375;1247
338.438;1245
338.500;1252
338.563;1247
338.625;1245
338.688;1242
338.750;1250
338.813;1237
338.875;1242
338.938;1257
339.000;1237
339.063;1247
339.125;1247
339.188;1245
339.250;1252
339.313;1254
339.375;1245
339.438;1245
339.500;1240
339.563;1237
339.625;1237
339.688;1245
339.750;1240
339.813;1247
339.875;1252
339.938;1250
340.000;1247
340.063;1245
340.125;1242
340.188;1230
340.250;1250
340.313;1245
340.375;1235
340.438;1240
340.500;1245
340.563;1242
340.625;1237
340.688;1237
340.750;1247
340.813;1245
340.875;1245
340.938;1250
341.000;1242
341.063;1235
341.125;1242
341.188;1242
341.250;1240
341.313;1240
341.375;1240
341.438;1242
341.500;1247
341.563;1242
341.625;1250
341.688;1242
341.750;1247
341.813;1242
341.875;1250
341.938;1232
342.000;1250
342.063;1242
342.125;1242
342.188;1240
342.250;1252
342.313;1250
342.375;1247
342.438;1242
342.500;1242
342.563;1245
342.625;1242
342.688;1245
342.750;1235
342.813;1240
342.875;1237
342.938;1247
343.000;1254
343.063;1245
343.125;1242
343.188;1254
343.250;1252
343.313;1259
343.375;1245
343.438;1252
343.500;1252
343.563;1250
343.625;1250
343.688;1250
343.750;1242
343.813;1237
343.875;1247
343.938;1245
344.000;1245
344.063;1257
344.125;1254
344.188;1245
344.250;1242
344.313;1252
344.375;1250
344.438;1240
344.500;1242
344.563;1245
344.625;1247
344.688;1252
344.750;1245
344.813;1237
344.875;1250
344.938;1237
345.000;1237
345.063;1252
345.125;1252
345.188;1250
345.250;1252
345.313;1245
345.375;1247
345.438;1242
345.500;1252
345.563;1257
345.625;1257
345.688;1235
345.750;1250
345.813;1237
345.875;1235
345.938;1242
346.000;1250
346.063;1242
346.125;1252
346.188;1240
346.250;1252
346.313;1247
346.375;1240
346.438;1247
346.500;1242
346.563;1237
346.625;1245
346.688;1245
346.750;1240
346.813;1247
346.875;1250
346.938;1240
347.000;1250
347.063;1250
347.125;1235
347.188;1240
347.250;1250
347.313;1245
347.375;1245
347.438;1247
347.500;1247
347.563;1247
347.625;1245
347.688;1240
347.750;1245
347.813;1247
347.875;1257
347.938;1250
348.000;1247
348.063;1252
348.125;1245
348.188;1254
348.250;1259
348.313;1245
348.375;1242
348.438;1252
348.500;1252
348.563;1250
348.625;1252
348.688;1259
348.750;1237
348.813;1232
348.875;1252
348.938;1245
349.000;1242
349.063;1250
349.125;1245
349.188;1235
349.250;1245
349.313;1242
349.375;1254
349.438;1245
349.500;1245
349.563;1240
349.625;1242
349.688;1242
349.750;1237
349.813;1240
349.875;1237
349.938;1245
350.000;1240
350.063;1252
350.125;1250
350.188;1237
350.250;1250
350.313;1247
350.375;1237
350.438;1242
350.500;1247
350.563;1254
350.625;1245
350.688;1240
350.750;1247
350.813;1250
350.875;1232
350.938;1250
351.000;1235
351.063;1245
351.125;1245
351.188;1254
351.250;1240
351.313;1252
351.375;1250
351.438;1245
351.500;1240
351.563;1240
351.625;1245
351.688;1245
351.750;1247
351.813;1242
351.875;1247
351.938;1240
352.000;1250
352.063;1242
352.125;1242
352.188;1252
352.250;1235
352.313;1240
352.375;1245
352.438;1250
352.500;1240
352.563;1247
352.625;1247
352.688;1242
352.750;1242
352.813;1235
352.875;1250
352.938;1250
353.000;1242
353.063;1250
353.125;1242
353.188;1235
353.250;1250
353.313;1250
353.375;1247
353.438;1245
353.500;1242
353.563;1245
353.625;1247
353.688;1247
353.750;1250
353.813;1245
353.875;1252
353.938;1242
354.000;1232
354.063;1250
354.125;1242
354.188;1237
354.250;1245
354.313;1247
354.375;1242
354.438;1245
354.500;1235
354.563;1242
354.625;1247
354.688;1250
354.750;1247
354.813;1250
354.875;1242
354.938;1242
355.000;1245
355.063;1242
355.125;1250
355.188;1245
355.250;1254
355.313;1245
355.375;1245
355.438;1237
355.500;1247
355.563;1252
355.625;1250
355.688;1245
355.750;1252
355.813;1250
355.875;1237
355.938;1250
356.000;1237
356.063;1245
356.125;1242
356.188;1250
356.250;1252
356.313;1247
356.375;1237
356.438;1252
356.500;1254
356.563;1240
356.625;1250
356.688;1247
356.750;1252
356.813;1240
356.875;1242
356.938;1245
357.000;1242
357.063;1254
357.125;1247
357.188;1242
357.250;1245
357.313;1232
357.375;1237
357.438;1242
357.500;1245
357.563;1237
357.625;1242
357.688;1247
357.750;1250
357.813;1242
357.875;1252
357.938;1250
358.000;1250
358.063;1245
358.125;1245
358.188;1242
358.250;1250
358.313;1242
358.375;1240
358.438;1242
358.500;1245
358.563;1247
358.625;1250
358.688;1250
358.750;1247
358.813;1242
358.875;1247
358.938;1237
359.000;1245
359.063;1252
359.125;1247
359.188;1245
359.250;1254
359.313;1274
359.375;1293
359.438;1291
359.500;1235
359.563;1247
359.625;1242
359.688;1247
359.750;1232
359.813;1245
359.875;1237
359.938;1247
360.000;1250
360.063;1254
360.125;1242
360.188;1245
360.250;1240
360.313;1242
360.375;1245
360.438;1240
360.500;1240
360.563;1242
360.625;1242
360.688;1235
360.750;1247
360.813;1247
360.875;1252
360.938;1264
361.000;1306
361.063;1354
361.125;1398
361.188;1352
361.250;1342
361.313;1306
361.375;1262
361.438;1247
361.500;1237
361.563;1252
361.625;1252
361.688;1257
361.750;1254
361.813;1242
361.875;1254
361.938;1254
362.000;1242
362.063;1240
362.125;1247
362.188;1254
362.250;1240
362.313;1250
362.375;1237
362.438;1247
362.500;1240
362.563;1252
362.625;1257
362.688;1235
362.750;1245
362.813;1242
362.875;1247
362.938;1257
363.000;1242
363.063;1250
363.125;1257
363.188;1254
363.250;1252
363.313;1254
363.375;1247
363.438;1245
363.500;1250
363.563;1250
363.625;1247
363.688;1254
363.750;1254
363.813;1245
363.875;1254
363.938;1242
364.000;1247
364.063;1245
364.125;1250
364.188;1250
364.250;1242
364.313;1242
364.375;1240
364.438;1240
364.500;1254
364.563;1252
364.625;1252
364.688;1247
364.750;1242
364.813;1252
364.875;1252
364.938;1250
365.000;1235
365.063;1245
365.125;1247
365.188;1242
365.250;1240
365.313;1250
365.375;1250
365.438;1247
365.500;1245
365.563;1250
365.625;1245
365.688;1252
365.750;1252
365.813;1247
365.875;1242
365.938;1247
366.000;1247
366.063;1245
366.125;1235
366.188;1242
366.250;1257
366.313;1247
366.375;1250
366.438;1250
366.500;1252
366.563;1245
366.625;1242
366.688;1245
366.750;1250
366.813;1245
366.875;1235
366.938;1247
367.000;1252
367.063;1252
367.125;1250
367.188;1254
367.250;1242
367.313;1252
367.375;1245
367.438;1247
367.500;1245
367.563;1250
367.625;1252
367.688;1254
367.750;1250
367.813;1250
367.875;1247
367.938;1247
368.000;1247
368.063;1250
368.125;1259
368.188;1245
368.250;1240
368.313;1232
368.375;1247
368.438;1247
368.500;1247
368.563;1240
368.625;1240
368.688;1245
368.750;1252
368.813;1250
368.875;1240
368.938;1250
369.000;1250
369.063;1245
369.125;1254
369.188;1245
369.250;1247
369.313;1250
369.375;1245
369.438;1250
369.500;1247
369.563;1250
369.625;1240
369.688;1254
369.750;1237
369.813;1240
369.875;1247
369.938;1245
370.000;1250
370.063;1240
370.125;1245
370.188;1250
370.250;1257
370.313;1240
370.375;1237
370.438;1250
370.500;1250
370.563;1245
370.625;1247
370.688;1247
370.750;1250
370.813;1240
370.875;1252
370.938;1237
371.000;1242
371.063;1247
371.125;1242
371.188;1242
371.250;1247
371.313;1247
371.375;1242
371.438;1250
371.500;1232
371.563;1252
371.625;1250
371.688;1245
371.750;1240
371.813;1250
371.875;1242
371.938;1240
372.000;1250
372.063;1247
372.125;1247
372.188;1252
372.250;1235
372.313;1240
372.375;1245
372.438;1252
372.500;1247
372.563;1240
372.625;1254
372.688;1240
372.750;1250
372.813;1250
372.875;1250
372.938;1247
373.000;1245
373.063;1232
373.125;1237
373.188;1240
373.250;1250
373.313;1245
373.375;1237
373.438;1242
373.500;1242
373.563;1242
373.625;1245
373.688;1245
373.750;1232
373.813;1252
373.875;1242
373.938;1242
374.000;1242
374.063;1247
374.125;1240
374.188;1240
374.250;1240
374.313;1232
374.375;1264
374.438;1242
374.500;1252
374.563;1252
374.625;1247
374.688;1247
374.750;1240
374.813;1247
374.875;1242
374.938;1240
375.000;1250
375.063;1250
375.125;1245
375.188;1250
375.250;1242
375.313;1235
375.375;1254
375.438;1242
375.500;1250
375.563;1252
375.625;1250
375.688;1245
375.750;1240
375.813;1245
375.875;1250
375.938;1252
376.000;1245
376.063;1247
376.125;1245
376.188;1250
376.250;1245
376.313;1242
376.375;1250
376.438;1240
376.500;1242
376.563;1245
376.625;1245
376.688;1247
376.750;1252
376.813;1242
376.875;1245
376.938;1247
377.000;1250
377.063;1235
377.125;1250
377.188;1245
377.250;1250
377.313;1245
377.375;1237
377.438;1240
377.500;1250
377.563;1250
377.625;1250
377.688;1232
377.750;1245
377.813;1247
377.875;1250
377.938;1240
378.000;1250
378.063;1250
378.125;1245
378.188;1237
378.250;1250
378.313;1247
378.375;1237
378.438;1247
378.500;1250
378.563;1250
378.625;1245
378.688;1254
378.750;1247
378.813;1247
378.875;1254
378.938;1232
379.000;1252
379.063;1247
379.125;1247
379.188;1252
379.250;1245
379.313;1240
379.375;1250
379.438;1250
379.500;1252
379.563;1250
379.625;1254
379.688;1250
379.750;1247
379.813;1247
379.875;1252
379.938;1245
380.000;1247
380.063;1245
380.125;1252
380.188;1242
380.250;1252
380.313;1252
380.375;1250
380.438;1242
380.500;1250
380.563;1252
380.625;1242
380.688;1245
380.750;1242
380.813;1240
380.875;1235
380.938;1242
381.000;1240
381.063;1250
381.125;1240
381.188;1245
381.250;1250
381.313;1242
381.375;1240
381.438;1240
381.500;1247
381.563;1240
381.625;1237
381.688;1242
381.750;1240
381.813;1247
381.875;1240
381.938;1237
382.000;1240
382.063;1240
382.125;1250
382.188;1240
382.250;1245
382.313;1250
382.375;1237
382.438;1247
382.500;1242
382.563;1254
382.625;1237
382.688;1247
382.750;1250
382.813;1250
382.875;1250
382.938;1252
383.000;1240
383.063;1250
383.125;1240
383.188;1240
383.250;1245
383.313;1242
383.375;1237
383.438;1240
383.500;1250
383.563;1242
383.625;1237
383.688;1242
383.750;1240
383.813;1247
383.875;1245
383.938;1252
384.000;1257
384.063;1254
384.125;1257
384.188;1245
384.250;1250
384.313;1254
384.375;1240
384.438;1242
384.500;1250
384.563;1242
384.625;1242
384.688;1250
384.750;1252
384.813;1242
384.875;1242
384.938;1245
385.000;1245
385.063;1247
385.125;1245
385.188;1252
385.250;1245
385.313;1252
385.375;1242
385.438;1245
385.500;1240
385.563;1237
385.625;1242
385.688;1235
385.750;1252
385.813;1235
385.875;1245
385.938;1245
386.000;1242
386.063;1245
386.125;1240
386.188;1242
386.250;1240
386.313;1242
386.375;1247
386.438;1254
386.500;1252
386.563;1240
386.625;1247
386.688;1235
386.750;1250
386.813;1247
386.875;1254
386.938;1237
387.000;1247
387.063;1240
387.125;1250
387.188;1250
387.250;1245
387.313;1242
387.375;1245
387.438;1252
387.500;1235
387.563;1245
387.625;1247
387.688;1250
387.750;1252
387.813;1240
387.875;1240
387.938;1242
388.000;1240
388.063;1245
388.125;1247
388.188;1245
388.250;1245
388.313;1254
388.375;1242
388.438;1245
388.500;1247
388.563;1245
388.625;1242
388.688;1240
388.750;1250
388.813;1242
388.875;1245
388.938;1250
389.000;1242
389.063;1247
389.125;1242
389.188;1245
389.250;1240
389.313;1252
389.375;1240
389.438;1230
389.500;1245
389.563;1250
389.625;1252
389.688;1247
389.750;1245
389.813;1250
389.875;1237
389.938;1237
390.000;1247
390.063;1264
390.125;1257
390.188;1250
390.250;1250
390.313;1247
390.375;1247
390.438;1242
390.500;1240
390.563;1247
390.625;1245
390.688;1250
390.750;1247
390.813;1232
390.875;1245
390.938;1235
391.000;1250
391.063;1252
391.125;1242
391.188;1245
391.250;1242
391.313;1242
391.375;1254
391.438;1252
391.500;1247
391.563;1245
391.625;1240
391.688;1247
391.750;1254
391.813;1237
391.875;1242
391.938;1252
392.000;1245
392.063;1240
392.125;1252
392.188;1242
392.250;1259
392.313;1235
392.375;1245
392.438;1247
392.500;1250
392.563;1254
392.625;1250
392.688;1240
392.750;1252
392.813;1245
392.875;1250
392.938;1257
393.000;1250
393.063;1250
393.125;1245
393.188;1250
393.250;1245
393.313;1252
393.375;1245
393.438;1247
393.500;1240
393.563;1247
393.625;1245
393.688;1250
393.750;1257
393.813;1242
393.875;1232
393.938;1240
394.000;1254
394.063;1245
394.125;1247
394.188;1254
394.250;1247
394.313;1250
394.375;1250
394.438;1237
394.500;1240
394.563;1250
394.625;1247
394.688;1240
394.750;1245
394.813;1247
394.875;1250
394.938;1247
395.000;1242
395.063;1250
395.125;1250
395.188;1237
395.250;1252
395.313;1245
395.375;1242
395.438;1245
395.500;1250
395.563;1247
395.625;1247
395.688;1247
395.750;1232
395.813;1242
395.875;1250
395.938;1245
396.000;1240
396.063;1237
396.125;1250
396.188;1240
396.250;1250
396.313;1242
396.375;1240
396.438;1247
396.500;1254
396.563;1237
396.625;1247
396.688;1242
396.750;1237
396.813;1257
396.875;1245
396.938;1252
397.000;1250
397.063;1250
397.125;1252
397.188;1247
397.250;1254
397.313;1247
397.375;1252
397.438;1245
397.500;1242
397.563;1252
397.625;1242
397.688;1235
397.750;1245
397.813;1245
397.875;1240
397.938;1242
398.000;1254
398.063;1247
398.125;1242
398.188;1252
398.250;1250
398.313;1245
398.375;1242
398.438;1240
398.500;1245
398.563;1240
398.625;1250
398.688;1247
398.750;1245
398.813;1245
398.875;1240
398.938;1240
399.000;1250
399.063;1247
399.125;1240
399.188;1254
399.250;1245
399.313;1245
399.375;1245
399.438;1245
399.500;1247
399.563;1250
399.625;1242
399.688;1242
399.750;1242
399.813;1237
399.875;1254
399.938;1242
400.000;1237
400.063;1235
400.125;1242
400.188;1242
400.250;1245
400.313;1247
400.375;1245
400.438;1240
400.500;1242
400.563;1232
400.625;1254
400.688;1237
400.750;1250
400.813;1250
400.875;1240
400.938;1237
401.000;1245
401.063;1247
401.125;1250
401.188;1257
401.250;1237
401.313;1247
401.375;1237
401.438;1245
401.500;1242
401.563;1254
401.625;1247
401.688;1247
401.750;1250
401.813;1242
401.875;1237
401.938;1237
402.000;1247
402.063;1242
402.125;1250
402.188;1252
402.250;1247
402.313;1245
402.375;1235
402.438;1235
402.500;1250
402.563;1237
402.625;1242
402.688;1245
402.750;1240
402.813;1245
402.875;1250
402.938;1247
403.000;1240
403.063;1237
403.125;1242
403.188;1232
403.250;1242
403.313;1257
403.375;1240
403.438;1252
403.500;1252
403.563;1250
403.625;1247
403.688;1250
403.750;1250
403.813;1250
403.875;1247
403.938;1247
404.000;1250
404.063;1245
404.125;1252
404.188;1245
404.250;1245
404.313;1250
404.375;1247
404.438;1245
404.500;1252
404.563;1242
404.625;1245
404.688;1235
404.750;1242
404.813;1247
404.875;1240
404.938;1237
405.000;1247
405.063;1242
405.125;1235
405.188;1245
405.250;1240
405.313;1247
405.375;1232
405.438;1237
405.500;1250
405.563;1240
405.625;1250
405.688;1254
405.750;1245
405.813;1252
405.875;1247
405.938;1237
406.000;1242
406.063;1245
406.125;1245
406.188;1240
406.250;1242
406.313;1247
406.375;1254
406.438;1245
406.500;1250
406.563;1242
406.625;1240
406.688;1245
406.750;1252
406.813;1232
406.875;1250
406.938;1242
407.000;1245
407.063;1245
407.125;1245
407.188;1237
407.250;1250
407.313;1247
407.375;1240
407.438;1245
407.500;1247
407.563;1245
407.625;1245
407.688;1235
407.750;1240
407.813;1245
407.875;1240
407.938;1245
408.000;1242
408.063;1245
408.125;1252
408.188;1247
408.250;1247
408.313;1252
408.375;1247
408.438;1247
408.500;1245
408.563;1242
408.625;1240
408.688;1254
408.750;1245
408.813;1245
408.875;1242
408.938;1247
409.000;1242
409.063;1245
409.125;1245
409.188;1252
409.250;1247
409.313;1250
409.375;1245
409.438;1240
409.500;1245
409.563;1250
409.625;1245
409.688;1264
409.750;1325
409.813;1535
409.875;1616
409.938;1674
410.000;1604
410.063;1584
410.125;1506
410.188;1308
410.250;1252
410.313;1245
410.375;1252
410.438;1250
410.500;1254
410.563;1245
410.625;1242
410.688;1247
410.750;1242
410.813;1245
410.875;1247
410.938;1235
411.000;1237
411.063;1237
411.125;1245
411.188;1240
411.250;1242
411.313;1240
411.375;1245
411.438;1242
411.500;1252
411.563;1252
411.625;1252
411.688;1235
411.750;1250
411.813;1242
411.875;1245
411.938;1247
412.000;1245
412.063;1252
412.125;1235
412.188;1240
412.250;1242
412.313;1240
412.375;1235
412.438;1252
412.500;1242
412.563;1240
412.625;1252
412.688;1250
412.750;1247
412.813;1237
412.875;1240
412.938;1247
413.000;1242
413.063;1240
413.125;1247
413.188;1245
413.250;1247
413.313;1242
413.375;1250
413.438;1242
413.500;1245
413.563;1245
413.625;1250
413.688;1245
413.750;1245
413.813;1250
413.875;1254
413.938;1242
414.000;1245
414.063;1242
414.125;1245
414.188;1240
414.250;1245
414.313;1247
414.375;1247
414.438;1247
414.500;1254
414.563;1250
414.625;1240
414.688;1257
414.750;1247
414.813;1245
414.875;1247
414.938;1247
415.000;1245
415.063;1247
415.125;1245
415.188;1242
415.250;1245
415.313;1250
415.375;1247
415.438;1232
415.500;1247
415.563;1242
415.625;1245
415.688;1247
415.750;1245
415.813;1235
415.875;1237
415.938;1242
416.000;1250
416.063;1232
416.125;1245
416.188;1245
416.250;1247
416.313;1247
416.375;1242
416.438;1252
416.500;1242
416.563;1264
416.625;1315
416.688;1525
416.750;1772
416.813;1857
416.875;1914
416.938;1855
417.000;1831
417.063;1762
417.125;1516
417.188;1301
417.250;1257
417.313;1245
417.375;1245
417.438;1245
417.500;1237
417.563;1237
417.625;1250
417.688;1250
417.750;1242
417.813;1237
417.875;1237
417.938;1237
418.000;1245
418.063;1242
418.125;1245
418.188;1250
418.250;1235
418.313;1237
418.375;1240
418.438;1237
418.500;1237
418.563;1242
418.625;1242
418.688;1240
418.750;1237
418.813;1242
418.875;1242
418.938;1247
419.000;1242
419.063;1254
419.125;1240
419.188;1242
419.250;1235
419.313;1247
419.375;1228
419.438;1240
419.500;1235
419.563;1242
419.625;1245
419.688;1245
419.750;1237
419.813;1247
419.875;1245
419.938;1245
420.000;1240
420.063;1245
420.125;1245
420.188;1247
420.250;1237
420.313;1242
420.375;1245
420.438;1250
420.500;1247
420.563;1240
420.625;1247
420.688;1252
420.750;1262
420.813;1271
420.875;1269
420.938;1289
421.000;1267
421.063;1247
421.125;1245
421.188;1237
421.250;1237
421.313;1252
421.375;1242
421.438;1250
421.500;1250
421.563;1230
421.625;1247
421.688;1257
421.750;1240
421.813;1250
421.875;1242
421.938;1242
422.000;1252
422.063;1235
422.125;1230
422.188;1242
422.250;1250
422.313;1245
422.375;1240
422.438;1250
422.500;1250
422.563;1252
422.625;1240
422.688;1254
422.750;1240
422.813;1250
422.875;1235
422.938;1245
423.000;1240
423.063;1247
423.125;1250
423.188;1250
423.250;1245
423.313;1237
423.375;1240
423.438;1235
423.500;1247
423.563;1240
423.625;1250
423.688;1245
423.750;1237
423.813;1232
423.875;1247
423.938;1240
424.000;1247
424.063;1237
424.125;1245
424.188;1242
424.250;1242
424.313;1242
424.375;1242
424.438;1250
424.500;1240
424.563;1252
424.625;1250
424.688;1230
424.750;1242
424.813;1242
424.875;1242
424.938;1247
425.000;1242
425.063;1242
425.125;1250
425.188;1235
425.250;1247
425.313;1237
425.375;1250
425.438;1237
425.500;1245
425.563;1242
425.625;1232
425.688;1240
425.750;1245
425.813;1245
425.875;1242
425.938;1240
426.000;1240
426.063;1247
426.125;1232
426.188;1240
426.250;1240
426.313;1242
426.375;1250
426.438;1240
426.500;1247
426.563;1250
426.625;1242
426.688;1242
426.750;1245
426.813;1250
426.875;1237
426.938;1240
427.000;1245
427.063;1245
427.125;1247
427.188;1237
427.250;1252
427.313;1240
427.375;1240
427.438;1250
427.500;1250
427.563;1245
427.625;1237
427.688;1245
427.750;1252
427.813;1247
427.875;1237
427.938;1242
428.000;1235
428.063;1242
428.125;1237
428.188;1240
428.250;1240
428.313;1237
428.375;1245
428.438;1245
428.500;1247
428.563;1240
428.625;1247
428.688;1242
428.750;1250
428.813;1242
428.875;1242
428.938;1240
429.000;1242
429.063;1240
429.125;1245
429.188;1240
429.250;1247
429.313;1237
429.375;1235
429.438;1250
429.500;1242
429.563;1245
429.625;1242
429.688;1240
429.750;1242
429.813;1252
429.875;1240
429.938;1245
430.000;1237
430.063;1242
430.125;1237
430.188;1250
430.250;1240
430.313;1237
430.375;1247
430.438;1242
430.500;1245
430.563;1250
430.625;1235
430.688;1242
430.750;1250
430.813;1242
430.875;1240
430.938;1245
431.000;1247
431.063;1240
431.125;1240
431.188;1242
431.250;1242
431.313;1232
431.375;1235
431.438;1245
431.500;1247
431.563;1235
431.625;1237
431.688;1242
431.750;1242
431.813;1235
431.875;1247
431.938;1237
432.000;1252
432.063;1240
432.125;1247
432.188;1245
432.250;1235
432.313;1235
432.375;1240
432.438;1242
432.500;1242
432.563;1237
432.625;1245
432.688;1250
432.750;1240
432.813;1247
432.875;1245
432.938;1245
433.000;1247
433.063;1250
433.125;1250
433.188;1250
433.250;1247
433.313;1245
433.375;1240
433.438;1245
433.500;1240
433.563;1252
433.625;1245
433.688;1252
433.750;1250
433.813;1240
433.875;1245
433.938;1242
434.000;1240
434.063;1250
434.125;1237
434.188;1242
434.250;1247
434.313;1250
434.375;1237
434.438;1242
434.500;1245
434.563;1247
434.625;1242
434.688;1237
434.750;1245
434.813;1242
434.875;1250
434.938;1242
435.000;1245
435.063;1240
435.125;1232
435.188;1250
435.250;1242
435.313;1245
435.375;1235
435.438;1245
435.500;1230
435.563;1235
435.625;1240
435.688;1245
435.750;1237
435.813;1247
435.875;1237
435.938;1240
436.000;1245
436.063;1245
436.125;1240
436.188;1247
436.250;1245
436.313;1245
436.375;1242
436.438;1240
436.500;1242
436.563;1245
436.625;1245
436.688;1242
436.750;1235
436.813;1247
436.875;1240
436.938;1235
437.000;1245
437.063;1250
437.125;1245
437.188;1245
437.250;1250
437.313;1242
437.375;1242
437.438;1235
437.500;1250
437.563;1247
437.625;1235
437.688;1247
437.750;1245
437.813;1250
437.875;1250
437.938;1247
438.000;1240
438.063;1252
438.125;1237
438.188;1242
438.250;1245
438.313;1235
438.375;1245
438.438;1252
438.500;1240
438.563;1247
438.625;1240
438.688;1242
438.750;1240
438.813;1245
438.875;1237
438.938;1232
439.000;1242
439.063;1247
439.125;1240
439.188;1245
439.250;1240
439.313;1242
439.375;1242
439.438;1252
439.500;1250
439.563;1250
439.625;1240
439.688;1240
439.750;1237
439.813;1245
439.875;1237
439.938;1247
440.000;1240
440.063;1247
440.125;1247
440.188;1237
440.250;1250
440.313;1237
440.375;1237
440.438;1240
440.500;1237
440.563;1237
440.625;1242
440.688;1247
440.750;1237
440.813;1232
440.875;1240
440.938;1242
441.000;1232
441.063;1242
441.125;1240
441.188;1245
441.250;1242
441.313;1240
441.375;1232
441.438;1242
441.500;1247
441.563;1237
441.625;1245
441.688;1259
441.750;1237
441.813;1237
441.875;1240
441.938;1245
442.000;1242
442.063;1232
442.125;1250
442.188;1237
442.250;1250
442.313;1242
442.375;1240
442.438;1237
442.500;1245
442.563;1240
442.625;1232
442.688;1242
442.750;1237
442.813;1237
442.875;1242
442.938;1232
443.000;1242
443.063;1240
443.125;1235
443.188;1247
443.250;1242
443.313;1242
443.375;1245
443.438;1252
443.500;1240
443.563;1240
443.625;1240
443.688;1245
443.750;1232
443.813;1237
443.875;1247
443.938;1250
444.000;1232
444.063;1237
444.125;1232
444.188;1235
444.250;1235
444.313;1250
444.375;1245
444.438;1242
444.500;1247
444.563;1247
444.625;1250
444.688;1245
444.750;1247
444.813;1240
444.875;1240
444.938;1240
445.000;1240
445.063;1247
445.125;1250
445.188;1250
445.250;1245
445.313;1250
445.375;1237
445.438;1242
445.500;1245
445.563;1240
445.625;1245
445.688;1245
445.750;1242
445.813;1240
445.875;1245
445.938;1230
446.000;1242
446.063;1240
446.125;1242
446.188;1247
446.250;1250
446.313;1242
446.375;1250
446.438;1250
446.500;1240
446.563;1247
446.625;1245
446.688;1250
446.750;1245
446.813;1240
446.875;1240
446.938;1245
447.000;1247
447.063;1242
447.125;1252
447.188;1242
447.250;1237
447.313;1250
447.375;1250
447.438;1245
447.500;1245
447.563;1237
447.625;1240
447.688;1235
447.750;1232
447.813;1250
447.875;1247
447.938;1267
448.000;1289
448.063;1313
448.125;1281
448.188;1291
448.250;1254
448.313;1242
448.375;1245
448.438;1247
448.500;1247
448.563;1247
448.625;1247
448.688;1232
448.750;1240
448.813;1240
448.875;1247
448.938;1250
449.000;1240
449.063;1242
449.125;1237
449.188;1242
449.250;1240
449.313;1245
449.375;1240
449.438;1242
449.500;1250
449.563;1254
449.625;1240
449.688;1250
449.750;1242
449.813;1235
449.875;1237
449.938;1245
450.000;1240
450.063;1250
450.125;1247
450.188;1250
450.250;1257
450.313;1247
450.375;1254
450.438;1267
450.500;1257
450.563;1269
450.625;1259
450.688;1306
450.750;1279
450.813;1286
450.875;1271
450.938;1269
451.000;1267
451.063;1264
451.125;1267
451.188;1274
451.250;1267
451.313;1276
451.375;1267
451.438;1276
451.500;1276
451.563;1269
451.625;1276
451.688;1267
451.750;1276
451.813;1264
451.875;1269
451.938;1264
452.000;1262
452.063;1269
452.125;1274
452.188;1269
452.250;1269
452.313;1267
452.375;1267
452.438;1269
452.500;1276
452.563;1267
452.625;1271
452.688;1267
452.750;1271
452.813;1267
452.875;1269
452.938;1271
453.000;1271
453.063;1274
453.125;1257
453.188;1264
453.250;1264
453.313;1271
453.375;1257
453.438;1284
453.500;1262
453.563;1281
453.625;1274
453.688;1269
453.750;1269
453.813;1271
453.875;1267
453.938;1271
454.000;1267
454.063;1267
454.125;1259
454.188;1269
454.250;1269
454.313;1264
454.375;1274
454.438;1271
454.500;1264
454.563;1274
454.625;1269
454.688;1269
454.750;1257
454.813;1264
454.875;1274
454.938;1267
455.000;1267
455.063;1262
455.125;1269
455.188;1259
455.250;1269
455.313;1262
455.375;1259
455.438;1269
455.500;1267
455.563;1267
455.625;1254
455.688;1269
455.750;1267
455.813;1264
455.875;1259
455.938;1269
456.000;1267
456.063;1254
456.125;1271
456.188;1271
456.250;1276
456.313;1271
456.375;1259
456.438;1269
456.500;1271
456.563;1259
456.625;1267
456.688;1271
456.750;1257
456.813;1267
456.875;1267
456.938;1267
457.000;1267
457.063;1269
457.125;1271
457.188;1274
457.250;1262
457.313;1264
457.375;1262
457.438;1264
457.500;1276
457.563;1269
457.625;1257
457.688;1271
457.750;1274
457.813;1271
457.875;1264
457.938;1269
458.000;1276
458.063;1267
458.125;1264
458.188;1269
458.250;1267
458.313;1276
458.375;1264
458.438;1257
458.500;1262
458.563;1257
458.625;1271
458.688;1262
458.750;1262
458.813;1264
458.875;1259
458.938;1279
459.000;1274
459.063;1259
459.125;1271
459.188;1262
459.250;1257
459.313;1252
459.375;1267
459.438;1264
459.500;1262
459.563;1269
459.625;1259
459.688;1269
459.750;1269
459.813;1264
459.875;1264
459.938;1259
460.000;1259
460.063;1267
460.125;1264
460.188;1269
460.250;1281
460.313;1264
460.375;1269
460.438;1267
460.500;1269
460.563;1271
460.625;1259
460.688;1267
460.750;1267
460.813;1267
460.875;1269
460.938;1264
461.000;1267
461.063;1269
461.125;1262
461.188;1262
461.250;1269
461.313;1259
461.375;1262
461.438;1267
461.500;1262
461.563;1271
461.625;1296
461.688;1325
461.750;1328
461.813;1296
461.875;1301
461.938;1269
462.000;1271
462.063;1262
462.125;1257
462.188;1269
462.250;1269
462.313;1267
462.375;1267
462.438;1264
462.500;1264
462.563;1259
462.625;1264
462.688;1262
462.750;1267
462.813;1269
462.875;1274
462.938;1267
463.000;1262
463.063;1274
463.125;1276
463.188;1262
463.250;1259
463.313;1269
463.375;1264
463.438;1264
463.500;1267
463.563;1252
463.625;1267
463.688;1267
463.750;1264
463.813;1271
463.875;1271
463.938;1257
464.000;1264
464.063;1271
464.125;1262
464.188;1271
464.250;1267
464.313;1259
464.375;1267
464.438;1271
464.500;1269
464.563;1271
464.625;1274
464.688;1267
464.750;1267
464.813;1267
464.875;1262
464.938;1267
465.000;1262
465.063;1267
465.125;1267
465.188;1264
465.250;1267
465.313;1271
465.375;1264
465.438;1259
465.500;1257
465.563;1269
465.625;1264
465.688;1274
465.750;1259
465.813;1271
465.875;1267
465.938;1262
466.000;1262
466.063;1264
466.125;1267
466.188;1267
466.250;1274
466.313;1269
466.375;1267
466.438;1269
466.500;1269
466.563;1259
466.625;1257
466.688;1264
466.750;1274
466.813;1259
466.875;1257
466.938;1274
467.000;1271
467.063;1264
467.125;1271
467.188;1259
467.250;1262
467.313;1262
467.375;1267
467.438;1262
467.500;1267
467.563;1250
467.625;1269
467.688;1257
467.750;1267
467.813;1262
467.875;1269
467.938;1262
468.000;1259
468.063;1250
468.125;1259
468.188;1264
468.250;1269
468.313;1267
468.375;1264
468.438;1267
468.500;1271
468.563;1262
468.625;1264
468.688;1264
468.750;1274
468.813;1245
468.875;1264
468.938;1252
469.000;1259
469.063;1267
469.125;1257
469.188;1262
469.250;1264
469.313;1262
469.375;1254
469.438;1259
469.500;1267
469.563;1257
469.625;1269
469.688;1257
469.750;1269
469.813;1276
469.875;1250
469.938;1267
470.000;1269
470.063;1262
470.125;1264
470.188;1264
470.250;1250
470.313;1257
470.375;1262
470.438;1264
470.500;1262
470.563;1257
470.625;1267
470.688;1259
470.750;1259
470.813;1254
470.875;1269
470.938;1262
471.000;1269
471.063;1269
471.125;1269
471.188;1267
471.250;1257
471.313;1264
471.375;1264
471.438;1267
471.500;1264
471.563;1267
471.625;1271
471.688;1269
471.750;1267
471.813;1264
471.875;1262
471.938;1259
472.000;1257
472.063;1262
472.125;1271
472.188;1262
472.250;1259
472.313;1264
472.375;1262
472.438;1257
472.500;1262
472.563;1262
472.625;1252
472.688;1276
472.750;1259
472.813;1262
472.875;1264
472.938;1257
473.000;1264
473.063;1262
473.125;1254
473.188;1264
473.250;1264
473.313;1259
473.375;1252
473.438;1252
473.500;1259
473.563;1262
473.625;1262
473.688;1262
473.750;1262
473.813;1267
473.875;1267
473.938;1259
474.000;1257
474.063;1264
474.125;1259
474.188;1264
474.250;1267
474.313;1259
474.375;1264
474.438;1271
474.500;1262
474.563;1259
474.625;1264
474.688;1269
474.750;1267
474.813;1267
474.875;1267
474.938;1262
475.000;1271
475.063;1264
475.125;1262
475.188;1264
475.250;1269
475.313;1257
475.375;1259
475.438;1269
475.500;1267
475.563;1271
475.625;1284
475.688;1264
475.750;1264
475.813;1269
475.875;1264
475.938;1267
476.000;1267
476.063;1262
476.125;1254
476.188;1267
476.250;1262
476.313;1259
476.375;1267
476.438;1262
476.500;1274
476.563;1267
476.625;1259
476.688;1257
476.750;1274
476.813;1262
476.875;1262
476.938;1264
477.000;1267
477.063;1252
477.125;1259
477.188;1262
477.250;1252
477.313;1262
477.375;1264
477.438;1267
477.500;1257
477.563;1262
477.625;1254
477.688;1259
477.750;1262
477.813;1267
477.875;1262
477.938;1269
478.000;1267
478.063;1262
478.125;1262
478.188;1259
478.250;1264
478.313;1264
478.375;1267
478.438;1254
478.500;1262
478.563;1271
478.625;1259
478.688;1269
478.750;1257
478.813;1262
478.875;1267
478.938;1267
479.000;1262
479.063;1267
479.125;1259
479.188;1267
479.250;1264
479.313;1252
479.375;1271
479.438;1259
479.500;1267
479.563;1264
479.625;1267
479.688;1264
479.750;1257
479.813;1267
479.875;1264
479.938;1269
480.000;1271
480.063;1262
480.125;1271
480.188;1264
480.250;1267
480.313;1264
480.375;1267
480.438;1259
480.500;1267
480.563;1262
480.625;1259
480.688;1267
480.750;1264
480.813;1262
480.875;1264
480.938;1269
481.000;1257
481.063;1262
481.125;1264
481.188;1269
481.250;1269
481.313;1259
481.375;1264
481.438;1264
481.500;1267
481.563;1267
481.625;1264
481.688;1259
481.750;1262
481.813;1262
481.875;1264
481.938;1267
482.000;1262
482.063;1267
482.125;1271
482.188;1269
482.250;1262
482.313;1254
482.375;1259
482.438;1257
482.500;1254
482.563;1271
482.625;1252
482.688;1264
482.750;1264
482.813;1267
482.875;1254
482.938;1262
483.000;1259
483.063;1271
483.125;1262
483.188;1252
483.250;1267
483.313;1271
483.375;1254
483.438;1264
483.500;1264
483.563;1269
483.625;1271
483.688;1264
483.750;1259
483.813;1271
483.875;1271
483.938;1264
484.000;1259
484.063;1264
484.125;1259
484.188;1252
484.250;1267
484.313;1257
484.375;1264
484.438;1259
484.500;1259
484.563;1264
484.625;1254
484.688;1259
484.750;1262
484.813;1259
484.875;1264
484.938;1264
485.000;1254
485.063;1252
485.125;1262
485.188;1262
485.250;1269
485.313;1269
485.375;1245
485.438;1254
485.500;1257
485.563;1267
485.625;1269
485.688;1269
485.750;1254
485.813;1250
485.875;1264
485.938;1264
486.000;1257
486.063;1262
486.125;1264
486.188;1264
486.250;1269
486.313;1252
486.375;1262
486.438;1257
486.500;1259
486.563;1257
486.625;1262
486.688;1262
486.750;1262
486.813;1262
486.875;1269
486.938;1257
487.000;1262
487.063;1264
487.125;1267
487.188;1257
487.250;1257
487.313;1250
487.375;1262
487.438;1262
487.500;1257
487.563;1267
487.625;1257
487.688;1264
487.750;1264
487.813;1269
487.875;1259
487.938;1264
488.000;1264
488.063;1269
488.125;1257
488.188;1257
488.250;1262
488.313;1264
488.375;1257
488.438;1252
488.500;1264
488.563;1257
488.625;1262
488.688;1262
488.750;1269
488.813;1264
488.875;1264
488.938;1269
489.000;1254
489.063;1269
489.125;1264
489.188;1259
489.250;1259
489.313;1269
489.375;1252
489.438;1262
489.500;1264
489.563;1267
489.625;1264
489.688;1257
489.750;1252
489.813;1259
489.875;1252
489.938;1254
490.000;1247
490.063;1259
490.125;1259
490.188;1259
490.250;1262
490.313;1257
490.375;1259
490.438;1264
490.500;1259
490.563;1254
490.625;1262
490.688;1254
490.750;1267
490.813;1269
490.875;1259
490.938;1252
491.000;1259
491.063;1254
491.125;1262
491.188;1269
491.250;1259
491.313;1257
491.375;1269
491.438;1264
491.500;1269
491.563;1259
491.625;1271
491.688;1257
491.750;1262
491.813;1269
491.875;1264
491.938;1252
492.000;1254
492.063;1257
492.125;1262
492.188;1269
492.250;1262
492.313;1257
492.375;1264
492.438;1259
492.500;1262
492.563;1257
492.625;1259
492.688;1259
492.750;1252
492.813;1269
492.875;1262
492.938;1267
493.000;1269
493.063;1262
493.125;1267
493.188;1259
493.250;1254
493.313;1271
493.375;1262
493.438;1269
493.500;1252
493.563;1254
493.625;1264
493.688;1264
493.750;1262
493.813;1259
493.875;1262
493.938;1252
494.000;1262
494.063;1262
494.125;1257
494.188;1254
494.250;1274
494.313;1254
494.375;1250
494.438;1264
494.500;1257
494.563;1259
494.625;1254
494.688;1271
494.750;1257
494.813;1247
494.875;1257
494.938;1262
495.000;1259
495.063;1254
495.125;1264
495.188;1296
495.250;1315
495.313;1369
495.375;1337
495.438;1323
495.500;1315
495.563;1271
495.625;1259
495.688;1259
495.750;1252
495.813;1262
495.875;1262
495.938;1257
496.000;1269
496.063;1267
496.125;1259
496.188;1254
496.250;1254
496.313;1254
496.375;1254
496.438;1257
496.500;1252
496.563;1267
496.625;1250
496.688;1271
496.750;1262
496.813;1271
496.875;1267
496.938;1254
497.000;1259
497.063;1254
497.125;1267
497.188;1262
497.250;1264
497.313;1262
497.375;1262
497.438;1254
497.500;1254
497.563;1262
497.625;1267
497.688;1269
497.750;1259
497.813;1264
497.875;1271
497.938;1259
498.000;1259
498.063;1267
498.125;1252
498.188;1257
498.250;1259
498.313;1262
498.375;1259
498.438;1269
498.500;1264
498.563;1262
498.625;1257
498.688;1262
498.750;1259
498.813;1257
498.875;1254
498.938;1271
499.000;1252
499.063;1257
499.125;1262
499.188;1264
499.250;1264
499.313;1257
499.375;1259
499.438;1257
499.500;1276
499.563;1254
499.625;1262
499.688;1257
499.750;1267
499.813;1259
499.875;1264
499.938;1259
500.000;1257
500.063;1262
500.125;1257
500.188;1259
500.250;1264
500.313;1267
500.375;1257
500.438;1264
500.500;1269
500.563;1257
500.625;1271
500.688;1264
500.750;1264
500.813;1271
500.875;1279
500.938;1262
501.000;1269
501.063;1262
501.125;1257
501.188;1267
501.250;1259
501.313;1259
501.375;1257
501.438;1259
501.500;1267
501.563;1252
501.625;1257
501.688;1259
501.750;1254
501.813;1252
501.875;1254
501.938;1257
502.000;1267
502.063;1267
502.125;1269
502.188;1259
502.250;1262
502.313;1264
502.375;1259
502.438;1269
502.500;1257
502.563;1252
502.625;1264
502.688;1264
502.750;1264
502.813;1252
502.875;1276
502.938;1264
503.000;1264
503.063;1254
503.125;1262
503.188;1262
503.250;1269
503.313;1252
503.375;1262
503.438;1254
503.500;1250
503.563;1267
503.625;1257
503.688;1262
503.750;1254
503.813;1271
503.875;1252
503.938;1257
504.000;1271
504.063;1264
504.125;1254
504.188;1262
504.250;1254
504.313;1254
504.375;1262
504.438;1257
504.500;1252
504.563;1254
504.625;1264
504.688;1254
504.750;1264
504.813;1257
504.875;1267
504.938;1252
505.000;1257
505.063;1259
505.125;1267
505.188;1259
505.250;1264
505.313;1257
505.375;1254
505.438;1250
505.500;1257
505.563;1257
505.625;1259
505.688;1264
505.750;1267
505.813;1257
505.875;1269
505.938;1259
506.000;1259
506.063;1262
506.125;1262
506.188;1264
506.250;1257
506.313;1257
506.375;1269
506.438;1259
506.500;1257
506.563;1262
506.625;1254
506.688;1259
506.750;1262
506.813;1259
506.875;1267
506.938;1254
507.000;1262
507.063;1254
507.125;1254
507.188;1252
507.250;1262
507.313;1257
507.375;1257
507.438;1264
507.500;1262
507.563;1247
507.625;1259
507.688;1259
507.750;1257
507.813;1267
507.875;1262
507.938;1254
508.000;1259
508.063;1259
508.125;1262
508.188;1262
508.250;1257
508.313;1264
508.375;1257
508.438;1257
508.500;1267
508.563;1257
508.625;1262
508.688;1267
508.750;1262
508.813;1269
508.875;1269
508.938;1254
509.000;1259
509.063;1259
509.125;1252
509.188;1259
509.250;1254
509.313;1254
509.375;1264
509.438;1257
509.500;1267
509.563;1252
509.625;1257
509.688;1257
509.750;1250
509.813;1259
509.875;1254
509.938;1269
510.000;1254
510.063;1269
510.125;1257
510.188;1264
510.250;1257
510.313;1262
510.375;1262
510.438;1262
510.500;1257
510.563;1259
510.625;1259
510.688;1259
510.750;1252
510.813;1262
510.875;1250
510.938;1264
511.000;1252
511.063;1264
511.125;1269
511.188;1264
511.250;1259
511.313;1247
511.375;1264
511.438;1257
511.500;1259
511.563;1267
511.625;1250
511.688;1257
511.750;1271
511.813;1254
511.875;1257
511.938;1267
512.000;1257
512.063;1264
512.125;1269
512.188;1267
512.250;1269
512.313;1259
512.375;1257
512.438;1252
512.500;1267
512.563;1264
512.625;1254
512.688;1254
512.750;1257
512.813;1257
512.875;1257
512.938;1247
513.000;1254
513.063;1250
513.125;1257
513.188;1252
513.250;1252
513.313;1259
513.375;1259
513.438;1262
513.500;1257
513.563;1252
513.625;1257
513.688;1262
513.750;1254
513.813;1259
513.875;1257
513.938;1264
514.000;1257
514.063;1257
514.125;1264
514.188;1262
514.250;1262
514.313;1250
514.375;1250
514.438;1269
514.500;1264
514.563;1264
514.625;1257
514.688;1259
514.750;1259
514.813;1264
514.875;1257
514.938;1257
515.000;1264
515.063;1269
515.125;1254
515.188;1245
515.250;1264
515.313;1257
515.375;1250
515.438;1269
515.500;1254
515.563;1271
515.625;1267
515.688;1250
515.750;1259
515.813;1259
515.875;1267
515.938;1250
516.000;1259
516.063;1264
516.125;1247
516.188;1254
516.250;1252
516.313;1259
516.375;1257
516.438;1259
516.500;1264
516.563;1257
516.625;1257
516.688;1264
516.750;1259
516.813;1257
516.875;1264
516.938;1259
517.000;1262
517.063;1254
517.125;1257
517.188;1250
517.250;1262
517.313;1259
517.375;1259
517.438;1252
517.500;1257
517.563;1262
517.625;1252
517.688;1254
517.750;1259
517.813;1247
517.875;1257
517.938;1262
518.000;1262
518.063;1264
518.125;1252
518.188;1267
518.250;1259
518.313;1259
518.375;1257
518.438;1254
518.500;1250
518.563;1259
518.625;1250
518.688;1262
518.750;1259
518.813;1267
518.875;1264
518.938;1252
519.000;1259
519.063;1262
519.125;1254
519.188;1257
519.250;1264
519.313;1250
519.375;1252
519.438;1254
519.500;1252
519.563;1257
519.625;1257
519.688;1252
519.750;1264
519.813;1259
519.875;1259
519.938;1252
520.000;1252
520.063;1252
520.125;1262
520.188;1247
520.250;1262
520.313;1252
520.375;1259
520.438;1267
520.500;1259
520.563;1257
520.625;1262
520.688;1257
520.750;1262
520.813;1250
520.875;1259
520.938;1267
521.000;1250
521.063;1250
521.125;1262
521.188;1264
521.250;1252
521.313;1264
521.375;1252
521.438;1257
521.500;1262
521.563;1264
521.625;1257
521.688;1264
521.750;1264
521.813;1259
521.875;1252
521.938;1262
522.000;1250
522.063;1259
522.125;1259
522.188;1250
522.250;1252
522.313;1259
522.375;1262
522.438;1254
522.500;1262
522.563;1252
522.625;1252
522.688;1254
522.750;1254
522.813;1267
522.875;1262
522.938;1262
523.000;1252
523.063;1259
523.125;1254
523.188;1254
523.250;1254
523.313;1264
523.375;1254
523.438;1262
523.500;1247
523.563;1257
523.625;1264
523.688;1264
523.750;1242
523.813;1257
523.875;1252
523.938;1267
524.000;1259
524.063;1250
524.125;1259
524.188;1254
524.250;1252
524.313;1259
524.375;1254
524.438;1259
524.500;1250
524.563;1254
524.625;1262
524.688;1262
524.750;1250
524.813;1245
524.875;1267
524.938;1257
525.000;1259
525.063;1259
525.125;1254
525.188;1252
525.250;1259
525.313;1262
525.375;1257
525.438;1250
525.500;1259
525.563;1252
525.625;1259
525.688;1250
525.750;1257
525.813;1252
525.875;1264
525.938;1259
526.000;1264
526.063;1242
526.125;1257
526.188;1245
526.250;1257
526.313;1259
526.375;1257
526.438;1259
526.500;1259
526.563;1259
526.625;1271
526.688;1257
526.750;1247
526.813;1264
526.875;1257
526.938;1252
527.000;1271
527.063;1267
527.125;1296
527.188;1416
527.250;1547
527.313;1611
527.375;1533
527.438;1606
527.500;1513
527.563;1406
527.625;1320
527.688;1281
527.750;1259
527.813;1262
527.875;1264
527.938;1269
528.000;1257
528.063;1254
528.125;1259
528.188;1259
528.250;1257
528.313;1254
528.375;1254
528.438;1262
528.500;1259
528.563;1259
528.625;1247
528.688;1264
528.750;1257
528.813;1257
528.875;1259
528.938;1271
529.000;1262
529.063;1259
529.125;1254
529.188;1254
529.250;1271
529.313;1252
529.375;1254
529.438;1257
529.500;1257
529.563;1259
529.625;1250
529.688;1254
529.750;1269
529.813;1250
529.875;1257
529.938;1264
530.000;1259
530.063;1267
530.125;1259
530.188;1252
530.250;1254
530.313;1254
530.375;1257
530.438;1259
530.500;1250
530.563;1257
530.625;1257
530.688;1250
530.750;1257
530.813;1257
530.875;1257
530.938;1257
531.000;1259
531.063;1264
531.125;1262
531.188;1254
531.250;1252
531.313;1267
531.375;1254
531.438;1267
531.500;1269
531.563;1264
531.625;1259
531.688;1311
531.750;1315
531.813;1333
531.875;1293
531.938;1279
532.000;1257
532.063;1254
532.125;1259
532.188;1254
532.250;1264
532.313;1267
532.375;1257
532.438;1250
532.500;1262
532.563;1254
532.625;1301
532.688;1469
532.750;1579
532.813;1657
532.875;1621
532.938;1574
533.000;1540
533.063;1374
533.125;1284
533.188;1262
533.250;1254
533.313;1257
533.375;1245
533.438;1252
533.500;1262
533.563;1257
533.625;1264
533.688;1262
533.750;1259
533.813;1252
533.875;1254
533.938;1254
534.000;1254
534.063;1254
534.125;1254
534.188;1254
534.250;1252
534.313;1257
534.375;1257
534.438;1264
534.500;1250
534.563;1262
534.625;1262
534.688;1250
534.750;1242
534.813;1269
534.875;1259
534.938;1250
535.000;1262
535.063;1257
535.125;1252
535.188;1257
535.250;1259
535.313;1250
535.375;1254
535.438;1254
535.500;1259
535.563;1262
535.625;1252
535.688;1259
535.750;1254
535.813;1269
535.875;1254
535.938;1264
536.000;1252
536.063;1262
536.125;1254
536.188;1257
536.250;1259
536.313;1254
536.375;1259
536.438;1267
536.500;1259
536.563;1259
536.625;1257
536.688;1257
536.750;1254
536.813;1257
536.875;1262
536.938;1262
537.000;1267
537.063;1252
537.125;1257
537.188;1250
537.250;1250
537.313;1252
537.375;1250
537.438;1254
537.500;1250
537.563;1259
537.625;1254
537.688;1250
537.750;1262
537.813;1259
537.875;1259
537.938;1250
538.000;1252
538.063;1257
538.125;1242
538.188;1257
538.250;1254
538.313;1259
538.375;1250
538.438;1254
538.500;1257
538.563;1267
538.625;1259
538.688;1259
538.750;1250
538.813;1247
538.875;1254
538.938;1254
539.000;1259
539.063;1264
539.125;1254
539.188;1252
539.250;1252
539.313;1257
539.375;1257
539.438;1247
539.500;1259
539.563;1257
539.625;1254
539.688;1254
539.750;1257
539.813;1254
539.875;1250
539.938;1259
540.000;1254
540.063;1252
540.125;1259
540.188;1257
540.250;1257
540.313;1247
540.375;1252
540.438;1254
540.500;1257
540.563;1250
540.625;1252
540.688;1254
540.750;1240
540.813;1252
540.875;1259
540.938;1257
541.000;1264
541.063;1259
541.125;1259
541.188;1245
541.250;1254
541.313;1259
541.375;1257
541.438;1242
541.500;1269
541.563;1259
541.625;1259
541.688;1267
541.750;1250
541.813;1257
541.875;1259
541.938;1245
542.000;1245
542.063;1257
542.125;1264
542.188;1262
542.250;1252
542.313;1264
542.375;1264
542.438;1259
542.500;1257
542.563;1271
542.625;1279
542.688;1269
542.750;1279
542.813;1289
542.875;1274
542.938;1372
543.000;1408
543.063;1501
543.125;1662
543.188;1850
543.250;1977
543.313;2058
543.375;2041
543.438;2028
543.500;1965
543.563;1809
543.625;1494
543.688;1337
543.750;1298
543.813;1267
543.875;1264
543.938;1262
544.000;1269
544.063;1269
544.125;1267
544.188;1279
544.250;1262
544.313;1284
544.375;1286
544.438;1276
544.500;1289
544.563;1286
544.625;1259
544.688;1276
544.750;1271
544.813;1269
544.875;1269
544.938;1259
545.000;1269
545.063;1262
545.125;1267
545.188;1254
545.250;1250
545.313;1262
545.375;1274
545.438;1269
545.500;1269
545.563;1262
545.625;1259
545.688;1269
545.750;1267
545.813;1267
545.875;1271
545.938;1250
546.000;1242
546.063;1264
546.125;1276
546.188;1264
546.250;1264
546.313;1259
546.375;1259
546.438;1267
546.500;1267
546.563;1267
546.625;1245
546.688;1257
546.750;1274
546.813;1269
546.875;1264
546.938;1240
547.000;1252
547.063;1262
547.125;1279
547.188;1330
547.250;1403
547.313;1406
547.375;1398
547.438;1369
547.500;1313
547.563;1279
547.625;1271
547.688;1276
547.750;1279
547.813;1318
547.875;1276
547.938;1274
548.000;1271
548.063;1254
548.125;1264
548.188;1262
548.250;1262
548.313;1257
548.375;1254
548.438;1259
548.500;1252
548.563;1274
548.625;1271
548.688;1525
548.750;1572
548.813;1647
548.875;1655
548.938;1604
549.000;1579
549.063;1486
549.125;1508
549.188;1545
549.250;1547
549.313;1542
549.375;1496
549.438;1455
549.500;1384
549.563;1311
549.625;1262
549.688;1252
549.750;1254
549.813;1259
549.875;1259
549.938;1259
550.000;1264
550.063;1250
550.125;1252
550.188;1254
550.250;1264
550.313;1250
550.375;1257
550.438;1257
550.500;1245
550.563;1257
550.625;1254
550.688;1259
550.750;1254
550.813;1250
550.875;1267
550.938;1254
551.000;1267
551.063;1252
551.125;1257
551.188;1257
551.250;1259
551.313;1259
551.375;1262
551.438;1259
551.500;1257
551.563;1257
551.625;1252
551.688;1252
551.750;1250
551.813;1240
551.875;1259
551.938;1252
552.000;1250
552.063;1264
552.125;1262
552.188;1250
552.250;1254
552.313;1264
552.375;1252
552.438;1257
552.500;1254
552.563;1257
552.625;1254
552.688;1264
552.750;1267
552.813;1259
552.875;1254
552.938;1259
553.000;1269
553.063;1259
553.125;1254
553.188;1245
553.250;1257
553.313;1254
553.375;1247
553.438;1250
553.500;1257
553.563;1252
553.625;1257
553.688;1254
553.750;1259
553.813;1250
553.875;1245
553.938;1254
554.000;1252
554.063;1264
554.125;1259
554.188;1264
554.250;1254
554.313;1254
554.375;1259
554.438;1252
554.500;1245
554.563;1259
554.625;1257
554.688;1262
554.750;1250
554.813;1254
554.875;1250
554.938;1257
555.000;1245
555.063;1254
555.125;1252
555.188;1259
555.250;1252
555.313;1252
555.375;1254
555.438;1254
555.500;1254
555.563;1259
555.625;1252
555.688;1247
555.750;1264
555.813;1254
555.875;1247
555.938;1252
556.000;1267
556.063;1254
556.125;1257
556.188;1259
556.250;1254
556.313;1250
556.375;1262
556.438;1257
556.500;1254
556.563;1262
556.625;1252
556.688;1245
556.750;1254
556.813;1257
556.875;1254
556.938;1250
557.000;1267
557.063;1257
557.125;1254
557.188;1252
557.250;1250
557.313;1259
557.375;1259
557.438;1257
557.500;1250
557.563;1242
557.625;1254
557.688;1252
557.750;1247
557.813;1257
557.875;1257
557.938;1254
558.000;1257
558.063;1262
558.125;1262
558.188;1259
558.250;1257
558.313;1250
558.375;1254
558.438;1257
558.500;1262
558.563;1259
558.625;1252
558.688;1252
558.750;1257
558.813;1257
558.875;1250
558.938;1259
559.000;1245
559.063;1259
559.125;1247
559.188;1247
559.250;1257
559.313;1254
559.375;1252
559.438;1267
559.500;1250
559.563;1257
559.625;1250
559.688;1250
559.750;1250
559.813;1257
559.875;1245
559.938;1254
560.000;1259
560.063;1264
560.125;1242
560.188;1250
560.250;1252
560.313;1250
560.375;1250
560.438;1250
560.500;1259
560.563;1257
560.625;1262
560.688;1242
560.750;1252
560.813;1247
560.875;1252
560.938;1262
561.000;1250
561.063;1264
561.125;1252
561.188;1247
561.250;1245
561.313;1254
561.375;1257
561.438;1250
561.500;1247
561.563;1252
561.625;1257
561.688;1245
561.750;1247
561.813;1257
561.875;1259
561.938;1250
562.000;1257
562.063;1262
562.125;1245
562.188;1259
562.250;1257
562.313;1264
562.375;1250
562.438;1247
562.500;1252
562.563;1250
562.625;1254
562.688;1252
562.750;1257
562.813;1264
562.875;1252
562.938;1259
563.000;1254
563.063;1259
563.125;1259
563.188;1245
563.250;1262
563.313;1250
563.375;1252
563.438;1247
563.500;1245
563.563;1257
563.625;1247
563.688;1245
563.750;1257
563.813;1250
563.875;1257
563.938;1254
564.000;1250
564.063;1257
564.125;1252
564.188;1254
564.250;1250
564.313;1259
564.375;1259
564.438;1240
564.500;1254
564.563;1257
564.625;1259
564.688;1257
564.750;1257
564.813;1259
564.875;1257
564.938;1252
565.000;1254
565.063;1252
565.125;1250
565.188;1252
565.250;1259
565.313;1259
565.375;1257
565.438;1237
565.500;1262
565.563;1252
565.625;1250
565.688;1254
565.750;1252
565.813;1262
565.875;1264
565.938;1250
566.000;1254
566.063;1257
566.125;1252
566.188;1262
566.250;1262
566.313;1252
566.375;1254
566.438;1262
566.500;1257
566.563;1252
566.625;1262
566.688;1259
566.750;1252
566.813;1252
566.875;1254
566.938;1254
567.000;1252
567.063;1254
567.125;1264
567.188;1257
567.250;1245
567.313;1252
567.375;1262
567.438;1254
567.500;1254
567.563;1262
567.625;1252
567.688;1259
567.750;1252
567.813;1254
567.875;1252
567.938;1247
568.000;1250
568.063;1257
568.125;1252
568.188;1257
568.250;1250
568.313;1242
568.375;1257
568.438;1250
568.500;1250
568.563;1252
568.625;1252
568.688;1257
568.750;1250
568.813;1252
568.875;1252
568.938;1254
569.000;1257
569.063;1267
569.125;1250
569.188;1254
569.250;1250
569.313;1257
569.375;1252
569.438;1254
569.500;1254
569.563;1252
569.625;1257
569.688;1257
569.750;1254
569.813;1252
569.875;1257
569.938;1257
570.000;1247
570.063;1259
570.125;1254
570.188;1252
570.250;1252
570.313;1250
570.375;1257
570.438;1257
570.500;1252
570.563;1257
570.625;1250
570.688;1254
570.750;1252
570.813;1250
570.875;1245
570.938;1254
571.000;1252
571.063;1259
571.125;1259
571.188;1247
571.250;1257
571.313;1257
571.375;1247
571.438;1254
571.500;1250
571.563;1254
571.625;1245
571.688;1262
571.750;1247
571.813;1257
571.875;1257
571.938;1250
572.000;1254
572.063;1250
572.125;1250
572.188;1257
572.250;1257
572.313;1264
572.375;1250
572.438;1245
572.500;1252
572.563;1250
572.625;1250
572.688;1247
572.750;1259
572.813;1242
572.875;1247
572.938;1252
573.000;1254
573.063;1250
573.125;1247
573.188;1257
573.250;1250
573.313;1247
573.375;1242
573.438;1259
573.500;1250
573.563;1254
573.625;1262
573.688;1247
573.750;1250
573.813;1245
573.875;1259
573.938;1250
574.000;1254
574.063;1254
574.125;1250
574.188;1259
574.250;1257
574.313;1245
574.375;1242
574.438;1252
574.500;1254
574.563;1247
574.625;1250
574.688;1254
574.750;1252
574.813;1257
574.875;1259
574.938;1250
575.000;1259
575.063;1245
575.125;1257
575.188;1271
575.250;1298
575.313;1335
575.375;1286
575.438;1286
575.500;1281
575.563;1252
575.625;1250
575.688;1259
575.750;1254
575.813;1252
575.875;1245
575.938;1262
576.000;1262
576.063;1276
576.125;1262
576.188;1264
576.250;1254
576.313;1257
576.375;1254
576.438;1254
576.500;1254
576.563;1250
576.625;1262
576.688;1252
576.750;1242
576.813;1254
576.875;1250
576.938;1250
577.000;1257
577.063;1257
577.125;1242
577.188;1259
577.250;1250
577.313;1257
577.375;1247
577.438;1254
577.500;1252
577.563;1250
577.625;1252
577.688;1257
577.750;1257
577.813;1264
577.875;1254
577.938;1250
578.000;1252
578.063;1254
578.125;1264
578.188;1254
578.250;1257
578.313;1250
578.375;1250
578.438;1245
578.500;1247
578.563;1250
578.625;1254
578.688;1259
578.750;1252
578.813;1262
578.875;1257
578.938;1254
579.000;1257
579.063;1259
579.125;1257
579.188;1252
579.250;1252
579.313;1245
579.375;1247
579.438;1250
579.500;1247
579.563;1257
579.625;1254
579.688;1250
579.750;1254
579.813;1252
579.875;1254
579.938;1250
580.000;1257
580.063;1250
580.125;1264
580.188;1247
580.250;1254
580.313;1254
580.375;1264
580.438;1252
580.500;1250
580.563;1259
580.625;1254
580.688;1252
580.750;1245
580.813;1262
580.875;1252
580.938;1250
581.000;1252
581.063;1252
581.125;1257
581.188;1252
581.250;1264
581.313;1240
581.375;1252
581.438;1257
581.500;1254
581.563;1257
581.625;1250
581.688;1254
581.750;1254
581.813;1250
581.875;1257
581.938;1245
582.000;1259
582.063;1259
582.125;1257
582.188;1252
582.250;1254
582.313;1252
582.375;1254
582.438;1257
582.500;1252
582.563;1250
582.625;1250
582.688;1240
582.750;1252
582.813;1245
582.875;1254
582.938;1257
583.000;1254
583.063;1250
583.125;1257
583.188;1250
583.250;1250
583.313;1259
583.375;1250
583.438;1252
583.500;1254
583.563;1250
583.625;1252
583.688;1245
583.750;1252
583.813;1247
583.875;1264
583.938;1254
584.000;1259
584.063;1254
584.125;1250
584.188;1252
584.250;1252
584.313;1245
584.375;1257
584.438;1257
584.500;1254
584.563;1250
584.625;1242
584.688;1242
584.750;1259
584.813;1247
584.875;1259
584.938;1242
585.000;1247
585.063;1245
585.125;1247
585.188;1257
585.250;1252
585.313;1247
585.375;1252
585.438;1254
585.500;1250
585.563;1252
585.625;1247
585.688;1252
585.750;1254
585.813;1242
585.875;1257
585.938;1247
586.000;1257
586.063;1252
586.125;1254
586.188;1259
586.250;1257
586.313;1252
586.375;1254
586.438;1252
586.500;1252
586.563;1252
586.625;1252
586.688;1250
586.750;1240
586.813;1252
586.875;1252
586.938;1250
587.000;1254
587.063;1259
587.125;1250
587.188;1254
587.250;1252
587.313;1257
587.375;1264
587.438;1252
587.500;1247
587.563;1242
587.625;1250
587.688;1252
587.750;1250
587.813;1252
587.875;1262
587.938;1245
588.000;1245
588.063;1250
588.125;1252
588.188;1250
588.250;1242
588.313;1257
588.375;1242
588.438;1250
588.500;1250
588.563;1250
588.625;1254
588.688;1257
588.750;1254
588.813;1245
588.875;1254
588.938;1257
589.000;1247
589.063;1254
589.125;1264
589.188;1254
589.250;1250
589.313;1259
589.375;1254
589.438;1245
589.500;1254
589.563;1245
589.625;1250
589.688;1252
589.750;1250
589.813;1254
589.875;1254
589.938;1267
590.000;1250
590.063;1252
590.125;1254
590.188;1247
590.250;1250
590.313;1250
590.375;1247
590.438;1254
590.500;1252
590.563;1252
590.625;1257
590.688;1252
590.750;1250
590.813;1250
590.875;1247
590.938;1247
591.000;1257
591.063;1250
591.125;1257
591.188;1262
591.250;1269
591.313;1276
591.375;1267
591.438;1271
591.500;1259
591.563;1262
591.625;1250
591.688;1252
591.750;1259
591.813;1257
591.875;1247
591.938;1254
592.000;1250
592.063;1259
592.125;1250
592.188;1242
592.250;1259
592.313;1247
592.375;1259
592.438;1252
592.500;1247
592.563;1254
592.625;1252
592.688;1242
592.750;1247
592.813;1245
592.875;1250
592.938;1257
593.000;1247
593.063;1247
593.125;1254
593.188;1252
593.250;1250
593.313;1247
593.375;1245
593.438;1254
593.500;1247
593.563;1250
593.625;1247
593.688;1250
593.750;1252
593.813;1247
593.875;1257
593.938;1245
594.000;1252
594.063;1252
594.125;1257
594.188;1252
594.250;1247
594.313;1252
594.375;1250
594.438;1247
594.500;1242
594.563;1250
594.625;1250
594.688;1250
594.750;1259
594.813;1262
594.875;1262
594.938;1247
595.000;1247
595.063;1257
595.125;1252
595.188;1259
595.250;1250
595.313;1254
595.375;1247
595.438;1242
595.500;1250
595.563;1252
595.625;1245
595.688;1257
595.750;1262
595.813;1252
595.875;1259
595.938;1247
596.000;1250
596.063;1242
596.125;1252
596.188;1250
596.250;1250
596.313;1250
596.375;1252
596.438;1257
596.500;1252
596.563;1250
596.625;1257
596.688;1298
596.750;1372
596.813;1457
596.875;1416
596.938;1374
597.000;1398
597.063;1276
597.125;1259
597.188;1257
597.250;1245
597.313;1240
597.375;1247
597.438;1259
597.500;1250
597.563;1252
597.625;1254
597.688;1250
597.750;1257
597.813;1247
597.875;1257
597.938;1259
598.000;1252
598.063;1250
598.125;1254
598.188;1250
598.250;1264
598.313;1257
598.375;1250
598.438;1254
598.500;1250
598.563;1250
598.625;1254
598.688;1247
598.750;1257
598.813;1247
598.875;1259
598.938;1254
599.000;1247
599.063;1250
599.125;1250
599.188;1252
599.250;1257
599.313;1259
599.375;1242
599.438;1252
599.500;1250
599.563;1250
599.625;1250
599.688;1259
599.750;1257
599.813;1267
599.875;1250
599.938;1254
600.000;1252
600.063;1250
600.125;1252
600.188;1254
600.250;1257
600.313;1245
600.375;1254
600.438;1257
600.500;1242
600.563;1242
600.625;1245
600.688;1252
600.750;1257
600.813;1264
600.875;1262
600.938;1242
601.000;1250
601.063;1250
601.125;1252
601.188;1257
601.250;1262
601.313;1247
601.375;1252
601.438;1254
601.500;1247
601.563;1252
601.625;1250
601.688;1247
601.750;1254
601.813;1252
601.875;1240
601.938;1250
602.000;1252
602.063;1247
602.125;1257
602.188;1264
602.250;1254
602.313;1259
602.375;1254
602.438;1240
602.500;1254
602.563;1247
602.625;1259
602.688;1254
602.750;1254
602.813;1242
602.875;1250
602.938;1254
603.000;1250
603.063;1250
603.125;1245
603.188;1252
603.250;1245
603.313;1252
603.375;1252
603.438;1250
603.500;1252
603.563;1257
603.625;1259
603.688;1247
603.750;1247
603.813;1252
603.875;1247
603.938;1242
604.000;1254
604.063;1245
604.125;1252
604.188;1254
604.250;1257
604.313;1257
604.375;1252
604.438;1250
604.500;1250
604.563;1252
604.625;1252
604.688;1250
604.750;1247
604.813;1250
604.875;1257
604.938;1250
605.000;1247
605.063;1252
605.125;1252
605.188;1245
605.250;1247
605.313;1259
605.375;1247
605.438;1254
605.500;1252
605.563;1245
605.625;1252
605.688;1252
605.750;1257
605.813;1250
605.875;1247
605.938;1254
606.000;1245
606.063;1254
606.125;1252
606.188;1247
606.250;1245
606.313;1237
606.375;1254
606.438;1247
606.500;1254
606.563;1250
606.625;1242
606.688;1247
606.750;1252
606.813;1252
606.875;1250
606.938;1250
607.000;1252
607.063;1254
607.125;1247
607.188;1254
607.250;1247
607.313;1242
607.375;1247
607.438;1250
607.500;1250
607.563;1259
607.625;1257
607.688;1267
607.750;1254
607.813;1247
607.875;1250
607.938;1254
608.000;1252
608.063;1247
608.125;1247
608.188;1250
608.250;1240
608.313;1254
608.375;1252
608.438;1259
608.500;1254
608.563;1254
608.625;1252
608.688;1254
608.750;1247
608.813;1257
608.875;1247
608.938;1247
609.000;1247
609.063;1257
609.125;1262
609.188;1250
609.250;1252
609.313;1257
609.375;1242
609.438;1240
609.500;1240
609.563;1250
609.625;1252
609.688;1252
609.750;1254
609.813;1245
609.875;1250
609.938;1254
610.000;1250
610.063;1250
610.125;1252
610.188;1250
610.250;1252
610.313;1252
610.375;1245
610.438;1254
610.500;1257
610.563;1254
610.625;1254
610.688;1245
610.750;1240
610.813;1250
610.875;1250
610.938;1245
611.000;1245
611.063;1247
611.125;1250
611.188;1257
611.250;1245
611.313;1257
611.375;1252
611.438;1242
611.500;1254
611.563;1259
611.625;1254
611.688;1252
611.750;1245
611.813;1254
611.875;1242
611.938;1254
612.000;1247
612.063;1259
612.125;1245
612.188;1247
612.250;1240
612.313;1252
612.375;1245
612.438;1242
612.500;1250
612.563;1250
612.625;1257
612.688;1247
612.750;1247
612.813;1250
612.875;1250
612.938;1252
613.000;1250
613.063;1235
613.125;1252
613.188;1257
613.250;1254
613.313;1264
613.375;1245
613.438;1254
613.500;1252
613.563;1247
613.625;1257
613.688;1247
613.750;1247
613.813;1247
613.875;1250
613.938;1237
614.000;1252
614.063;1259
614.125;1250
614.188;1252
614.250;1254
614.313;1247
614.375;1252
614.438;1254
614.500;1250
614.563;1250
614.625;1252
614.688;1245
614.750;1252
614.813;1254
614.875;1247
614.938;1247
615.000;1252
615.063;1250
615.125;1252
615.188;1250
615.250;1257
615.313;1242
615.375;1247
615.438;1252
615.500;1254
615.563;1257
615.625;1254
615.688;1254
615.750;1257
615.813;1252
615.875;1257
615.938;1237
616.000;1254
616.063;1230
616.125;1245
616.188;1250
616.250;1252
616.313;1250
616.375;1247
616.438;1257
616.500;1252
616.563;1252
616.625;1259
616.688;1250
616.750;1259
616.813;1247
616.875;1262
616.938;1257
617.000;1252
617.063;1250
617.125;1254
617.188;1254
617.250;1254
617.313;1250
617.375;1254
617.438;1247
617.500;1254
617.563;1242
617.625;1250
617.688;1259
617.750;1254
617.813;1252
617.875;1240
617.938;1254
618.000;1257
618.063;1269
618.125;1259
618.188;1254
618.250;1262
618.313;1247
618.375;1245
618.438;1235
618.500;1247
618.563;1250
618.625;1252
618.688;1247
618.750;1250
618.813;1252
618.875;1254
618.938;1257
619.000;1247
619.063;1262
619.125;1250
619.188;1257
619.250;1250
619.313;1250
619.375;1252
619.438;1252
619.500;1259
619.563;1252
619.625;1254
619.688;1245
619.750;1242
619.813;1262
619.875;1257
619.938;1245
620.000;1250
620.063;1250
620.125;1250
620.188;1252
620.250;1250
620.313;1250
620.375;1250
620.438;1247
620.500;1250
620.563;1247
620.625;1250
620.688;1245
620.750;1257
620.813;1254
620.875;1242
620.938;1250
621.000;1247
621.063;1252
621.125;1254
621.188;1247
621.250;1262
621.313;1245
621.375;1240
621.438;1247
621.500;1254
621.563;1250
621.625;1250
621.688;1254
621.750;1259
621.813;1250
621.875;1245
621.938;1250
622.000;1250
622.063;1252
622.125;1240
622.188;1245
622.250;1254
622.313;1250
622.375;1247
622.438;1250
622.500;1247
622.563;1252
622.625;1240
622.688;1245
622.750;1250
622.813;1252
622.875;1245
622.938;1252
623.000;1274
623.063;1293
623.125;1403
623.188;1628
623.250;1750
623.313;1831
623.375;1818
623.438;1757
623.500;1730
623.563;1516
623.625;1330
623.688;1274
623.750;1262
623.813;1259
623.875;1262
623.938;1262
624.000;1242
624.063;1252
624.125;1250
624.188;1245
624.250;1247
624.313;1250
624.375;1247
624.438;1247
624.500;1257
624.563;1250
624.625;1250
624.688;1262
624.750;1254
624.813;1254
624.875;1247
624.938;1257
625.000;1247
625.063;1252
625.125;1245
625.188;1259
625.250;1252
625.313;1252
625.375;1252
625.438;1252
625.500;1245
625.563;1250
625.625;1254
625.688;1247
625.750;1250
625.813;1254
625.875;1252
625.938;1250
626.000;1250
626.063;1245
626.125;1254
626.188;1247
626.250;1250
626.313;1254
626.375;1252
626.438;1259
626.500;1257
626.563;1250
626.625;1247
626.688;1240
626.750;1254
626.813;1252
626.875;1252
626.938;1254
627.000;1247
627.063;1252
627.125;1254
627.188;1262
627.250;1276
627.313;1284
627.375;1284
627.438;1274
627.500;1262
627.563;1259
627.625;1274
627.688;1271
627.750;1296
627.813;1286
627.875;1269
627.938;1276
628.000;1262
628.063;1259
628.125;1245
628.188;1250
628.250;1250
628.313;1252
628.375;1247
628.438;1259
628.500;1250
628.563;1250
628.625;1250
628.688;1359
628.750;1406
628.813;1467
628.875;1516
628.938;1467
629.000;1464
629.063;1364
629.125;1394
629.188;1418
629.250;1423
629.313;1403
629.375;1389
629.438;1347
629.500;1301
629.563;1267
629.625;1250
629.688;1242
629.750;1240
629.813;1245
629.875;1247
629.938;1250
630.000;1247
630.063;1252
630.125;1250
630.188;1245
630.250;1257
630.313;1242
630.375;1262
630.438;1250
630.500;1254
630.563;1250
630.625;1245
630.688;1252
630.750;1250
630.813;1254
630.875;1252
630.938;1254
631.000;1247
631.063;1254
631.125;1250
631.188;1242
631.250;1250
631.313;1250
631.375;1250
631.438;1247
631.500;1250
631.563;1257
631.625;1247
631.688;1242
631.750;1247
631.813;1247
631.875;1257
631.938;1250
632.000;1245
632.063;1254
632.125;1250
632.188;1250
632.250;1250
632.313;1247
632.375;1257
632.438;1259
632.500;1254
632.563;1257
632.625;1252
632.688;1257
632.750;1247
632.813;1262
632.875;1247
632.938;1250
633.000;1250
633.063;1254
633.125;1250
633.188;1252
633.250;1250
633.313;1262
633.375;1264
633.438;1252
633.500;1245
633.563;1252
633.625;1245
633.688;1247
633.750;1242
633.813;1252
633.875;1254
633.938;1252
634.000;1250
634.063;1250
634.125;1250
634.188;1257
634.250;1254
634.313;1247
634.375;1254
634.438;1259
634.500;1250
634.563;1245
634.625;1252
634.688;1257
634.750;1254
634.813;1242
634.875;1254
634.938;1254
635.000;1254
635.063;1254
635.125;1250
635.188;1252
635.250;1257
635.313;1252
635.375;1247
635.438;1245
635.500;1252
635.563;1252
635.625;1245
635.688;1242
635.750;1254
635.813;1245
635.875;1252
635.938;1252
636.000;1250
636.063;1235
636.125;1259
636.188;1257
636.250;1252
636.313;1250
636.375;1242
636.438;1247
636.500;1250
636.563;1245
636.625;1245
636.688;1240
636.750;1254
636.813;1257
636.875;1247
636.938;1252
637.000;1257
637.063;1250
637.125;1247
637.188;1242
637.250;1252
637.313;1257
637.375;1252
637.438;1252
637.500;1247
637.563;1254
637.625;1252
637.688;1254
637.750;1240
637.813;1242
637.875;1257
637.938;1250
638.000;1250
638.063;1247
638.125;1250
638.188;1252
638.250;1252
638.313;1257
638.375;1259
638.438;1262
638.500;1247
638.563;1250
638.625;1252
638.688;1254
638.750;1252
638.813;1254
638.875;1245
638.938;1252
639.000;1250
639.063;1254
639.125;1262
639.188;1337
639.250;1418
639.313;1464
639.375;1408
639.438;1359
639.500;1398
639.563;1298
639.625;1250
639.688;1245
639.750;1247
639.813;1254
639.875;1252
639.938;1252
640.000;1252
640.063;1250
640.125;1259
640.188;1250
640.250;1250
640.313;1250
640.375;1250
640.438;1242
640.500;1250
640.563;1245
640.625;1250
640.688;1250
640.750;1245
640.813;1254
640.875;1247
640.938;1250
641.000;1252
641.063;1254
641.125;1252
641.188;1245
641.250;1252
641.313;1245
641.375;1264
641.438;1254
641.500;1250
641.563;1245
641.625;1252
641.688;1250
641.750;1254
641.813;1247
641.875;1245
641.938;1250
642.000;1254
642.063;1240
642.125;1250
642.188;1257
642.250;1254
642.313;1240
642.375;1250
642.438;1247
642.500;1257
642.563;1245
642.625;1252
642.688;1250
642.750;1252
642.813;1242
642.875;1254
642.938;1262
643.000;1247
643.063;1254
643.125;1257
643.188;1247
643.250;1259
643.313;1259
643.375;1252
643.438;1252
643.500;1254
643.563;1250
643.625;1254
643.688;1247
643.750;1257
643.813;1254
643.875;1254
643.938;1250
644.000;1247
644.063;1247
644.125;1250
644.188;1257
644.250;1254
644.313;1247
644.375;1254
644.438;1240
644.500;1254
644.563;1250
644.625;1257
644.688;1313
644.750;1335
644.813;1330
644.875;1340
644.938;1311
645.000;1308
645.063;1274
645.125;1252
645.188;1245
645.250;1254
645.313;1250
645.375;1250
645.438;1245
645.500;1250
645.563;1250
645.625;1250
645.688;1254
645.750;1254
645.813;1247
645.875;1250
645.938;1252
646.000;1252
646.063;1242
646.125;1245
646.188;1245
646.250;1250
646.313;1242
646.375;1237
646.438;1247
646.500;1252
646.563;1250
646.625;1247
646.688;1252
646.750;1252
646.813;1257
646.875;1257
646.938;1250
647.000;1245
647.063;1252
647.125;1254
647.188;1252
647.250;1264
647.313;1245
647.375;1247
647.438;1252
647.500;1242
647.563;1252
647.625;1254
647.688;1254
647.750;1247
647.813;1254
647.875;1252
647.938;1245
648.000;1254
648.063;1247
648.125;1252
648.188;1257
648.250;1250
648.313;1252
648.375;1254
648.438;1247
648.500;1252
648.563;1252
648.625;1250
648.688;1254
648.750;1250
648.813;1264
648.875;1259
648.938;1259
649.000;1242
649.063;1247
649.125;1247
649.188;1252
649.250;1245
649.313;1247
649.375;1252
649.438;1250
649.500;1254
649.563;1247
649.625;1252
649.688;1245
649.750;1259
649.813;1254
649.875;1250
649.938;1250
650.000;1252
650.063;1257
650.125;1254
650.188;1250
650.250;1257
650.313;1250
650.375;1254
650.438;1250
650.500;1252
650.563;1250
650.625;1252
650.688;1237
650.750;1245
650.813;1247
650.875;1245
650.938;1252
651.000;1257
651.063;1252
651.125;1254
651.188;1264
651.250;1257
651.313;1245
651.375;1254
651.438;1252
651.500;1254
651.563;1250
651.625;1245
651.688;1247
651.750;1259
651.813;1247
651.875;1254
651.938;1252
652.000;1250
652.063;1252
652.125;1250
652.188;1254
652.250;1250
652.313;1245
652.375;1250
652.438;1240
652.500;1250
652.563;1250
652.625;1240
652.688;1252
652.750;1245
652.813;1252
652.875;1257
652.938;1250
653.000;1250
653.063;1247
653.125;1257
653.188;1250
653.250;1254
653.313;1252
653.375;1237
653.438;1245
653.500;1247
653.563;1245
653.625;1262
653.688;1247
653.750;1247
653.813;1257
653.875;1247
653.938;1250
654.000;1252
654.063;1254
654.125;1247
654.188;1250
654.250;1247
654.313;1254
654.375;1250
654.438;1250
654.500;1250
654.563;1254
654.625;1259
654.688;1250
654.750;1252
654.813;1250
654.875;1250
654.938;1250
655.000;1250
655.063;1254
655.125;1259
655.188;1259
655.250;1318
655.313;1333
655.375;1318
655.438;1298
655.500;1286
655.563;1257
655.625;1245
655.688;1247
655.750;1252
655.813;1250
655.875;1259
655.938;1262
656.000;1237
656.063;1250
656.125;1254
656.188;1250
656.250;1259
656.313;1252
656.375;1250
656.438;1245
656.500;1254
656.563;1250
656.625;1245
656.688;1252
656.750;1247
656.813;1257
656.875;1257
656.938;1245
657.000;1250
657.063;1247
657.125;1250
657.188;1242
657.250;1247
657.313;1250
657.375;1242
657.438;1254
657.500;1262
657.563;1254
657.625;1252
657.688;1245
657.750;1247
657.813;1259
657.875;1257
657.938;1252
658.000;1254
658.063;1252
658.125;1254
658.188;1250
658.250;1252
658.313;1245
658.375;1242
658.438;1250
658.500;1254
658.563;1247
658.625;1247
658.688;1250
658.750;1252
658.813;1250
658.875;1252
658.938;1242
659.000;1247
659.063;1247
659.125;1257
659.188;1252
659.250;1254
659.313;1250
659.375;1257
659.438;1250
659.500;1257
659.563;1247
659.625;1250
659.688;1242
659.750;1250
659.813;1254
659.875;1247
659.938;1252
660.000;1242
660.063;1254
660.125;1250
660.188;1264
660.250;1254
660.313;1250
660.375;1242
660.438;1252
660.500;1242
660.563;1254
660.625;1250
660.688;1257
660.750;1247
660.813;1254
660.875;1247
660.938;1250
661.000;1250
661.063;1242
661.125;1252
661.188;1250
661.250;1254
661.313;1254
661.375;1250
661.438;1242
661.500;1252
661.563;1252
661.625;1247
661.688;1250
661.750;1254
661.813;1247
661.875;1250
661.938;1250
662.000;1245
662.063;1257
662.125;1240
662.188;1245
662.250;1257
662.313;1245
662.375;1254
662.438;1250
662.500;1254
662.563;1245
662.625;1250
662.688;1254
662.750;1254
662.813;1252
662.875;1250
662.938;1247
663.000;1254
663.063;1250
663.125;1250
663.188;1262
663.250;1252
663.313;1252
663.375;1247
663.438;1242
663.500;1257
663.563;1242
663.625;1247
663.688;1259
663.750;1254
663.813;1259
663.875;1250
663.938;1247
664.000;1245
664.063;1242
664.125;1247
664.188;1245
664.250;1254
664.313;1254
664.375;1252
664.438;1254
664.500;1247
664.563;1247
664.625;1257
664.688;1252
664.750;1245
664.813;1252
664.875;1245
664.938;1240
665.000;1257
665.063;1250
665.125;1250
665.188;1245
665.250;1257
665.313;1250
665.375;1252
665.438;1247
665.500;1254
665.563;1247
665.625;1245
665.688;1245
665.750;1252
665.813;1247
665.875;1250
665.938;1252
666.000;1257
666.063;1252
666.125;1240
666.188;1252
666.250;1254
666.313;1257
666.375;1242
666.438;1252
666.500;1254
666.563;1250
666.625;1250
666.688;1254
666.750;1252
666.813;1259
666.875;1250
666.938;1252
667.000;1259
667.063;1250
667.125;1245
667.188;1259
667.250;1250
667.313;1245
667.375;1245
667.438;1245
667.500;1228
667.563;1247
667.625;1264
667.688;1262
667.750;1252
667.813;1259
667.875;1257
667.938;1250
668.000;1247
668.063;1245
668.125;1254
668.188;1242
668.250;1257
668.313;1254
668.375;1250
668.438;1250
668.500;1257
668.563;1252
668.625;1250
668.688;1250
668.750;1257
668.813;1264
668.875;1252
668.938;1252
669.000;1247
669.063;1240
669.125;1247
669.188;1257
669.250;1247
669.313;1252
669.375;1252
669.438;1254
669.500;1254
669.563;1245
669.625;1252
669.688;1237
669.750;1250
669.813;1250
669.875;1242
669.938;1250
670.000;1257
670.063;1242
670.125;1257
670.188;1252
670.250;1252
670.313;1250
670.375;1257
670.438;1254
670.500;1247
670.563;1252
670.625;1245
670.688;1247
670.750;1252
670.813;1245
670.875;1257
670.938;1257
671.000;1247
671.063;1247
671.125;1254
671.188;1257
671.250;1259
671.313;1271
671.375;1276
671.438;1271
671.500;1257
671.563;1259
671.625;1247
671.688;1247
671.750;1254
671.813;1254
671.875;1252
671.938;1257
672.000;1267
672.063;1245
672.125;1250
672.188;1247
672.250;1250
672.313;1257
672.375;1254
672.438;1245
672.500;1250
672.563;1254
672.625;1257
672.688;1252
672.750;1242
672.813;1247
672.875;1237
672.938;1242
673.000;1245
673.063;1252
673.125;1242
673.188;1242
673.250;1259
673.313;1259
673.375;1254
673.438;1247
673.500;1250
673.563;1252
673.625;1257
673.688;1247
673.750;1250
673.813;1245
673.875;1250
673.938;1250
674.000;1245
674.063;1240
674.125;1254
674.188;1254
674.250;1247
674.313;1245
674.375;1250
674.438;1252
674.500;1257
674.563;1252
674.625;1242
674.688;1245
674.750;1252
674.813;1237
674.875;1237
674.938;1250
675.000;1237
675.063;1245
675.125;1257
675.188;1254
675.250;1252
675.313;1242
675.375;1250
675.438;1250
675.500;1250
675.563;1259
675.625;1250
675.688;1252
675.750;1252
675.813;1257
675.875;1245
675.938;1252
676.000;1254
676.063;1257
676.125;1257
676.188;1254
676.250;1247
676.313;1259
676.375;1252
676.438;1245
676.500;1257
676.563;1247
676.625;1237
676.688;1252
676.750;1254
676.813;1242
676.875;1254
676.938;1240
677.000;1254
677.063;1252
677.125;1247
677.188;1247
677.250;1254
677.313;1245
677.375;1245
677.438;1257
677.500;1254
677.563;1257
677.625;1245
677.688;1250
677.750;1247
677.813;1240
677.875;1240
677.938;1245
678.000;1257
678.063;1254
678.125;1252
678.188;1245
678.250;1237
678.313;1252
678.375;1252
678.438;1242
678.500;1257
678.563;1257
678.625;1247
678.688;1257
678.750;1250
678.813;1242
678.875;1257
678.938;1250
679.000;1250
679.063;1250
679.125;1257
679.188;1254
679.250;1250
679.313;1247
679.375;1250
679.438;1257
679.500;1257
679.563;1252
679.625;1242
679.688;1247
679.750;1254
679.813;1257
679.875;1247
679.938;1257
680.000;1247
680.063;1242
680.125;1247
680.188;1247
680.250;1247
680.313;1250
680.375;1237
680.438;1252
680.500;1247
680.563;1240
680.625;1250
680.688;1247
680.750;1250
680.813;1252
680.875;1242
680.938;1257
681.000;1252
681.063;1250
681.125;1252
681.188;1240
681.250;1250
681.313;1247
681.375;1235
681.438;1247
681.500;1259
681.563;1250
681.625;1245
681.688;1247
681.750;1254
681.813;1242
681.875;1252
681.938;1254
682.000;1252
682.063;1252
682.125;1250
682.188;1259
682.250;1245
682.313;1250
682.375;1247
682.438;1250
682.500;1250
682.563;1250
682.625;1242
682.688;1250
682.750;1257
682.813;1250
682.875;1252
682.938;1250
683.000;1247
683.063;1245
683.125;1254
683.188;1245
683.250;1247
683.313;1250
683.375;1247
683.438;1250
683.500;1242
683.563;1247
683.625;1250
683.688;1250
683.750;1230
683.813;1250
683.875;1252
683.938;1247
684.000;1250
684.063;1247
684.125;1250
684.188;1252
684.250;1245
684.313;1252
684.375;1252
684.438;1250
684.500;1252
684.563;1240
684.625;1245
684.688;1250
684.750;1242
684.813;1257
684.875;1254
684.938;1250
685.000;1250
685.063;1245
685.125;1254
685.188;1250
685.250;1242
685.313;1250
685.375;1250
685.438;1247
685.500;1242
685.563;1254
685.625;1247
685.688;1250
685.750;1245
685.813;1250
685.875;1245
685.938;1254
686.000;1254
686.063;1257
686.125;1247
686.188;1245
686.250;1242
686.313;1242
686.375;1250
686.438;1250
686.500;1259
686.563;1262
686.625;1252
686.688;1252
686.750;1252
686.813;1252
686.875;1269
686.938;1262
687.000;1264
687.063;1276
687.125;1386
687.188;1586
687.250;1743
687.313;1826
687.375;1779
687.438;1767
687.500;1711
687.563;1484
687.625;1320
687.688;1274
687.750;1259
687.813;1257
687.875;1252
687.938;1259
688.000;1259
688.063;1252
688.125;1254
688.188;1250
688.250;1237
688.313;1259
688.375;1259
688.438;1259
688.500;1252
688.563;1247
688.625;1250
688.688;1247
688.750;1242
688.813;1254
688.875;1242
688.938;1252
689.000;1247
689.063;1247
689.125;1252
689.188;1254
689.250;1245
689.313;1257
689.375;1250
689.438;1240
689.500;1250
689.563;1250
689.625;1252
689.688;1245
689.750;1247
689.813;1254
689.875;1242
689.938;1240
690.000;1250
690.063;1252
690.125;1254
690.188;1245
690.250;1250
690.313;1240
690.375;1254
690.438;1252
690.500;1242
690.563;1245
690.625;1247
690.688;1247
690.750;1250
690.813;1254
690.875;1245
690.938;1245
691.000;1242
691.063;1237
691.125;1257
691.188;1257
691.250;1276
691.313;1274
691.375;1269
691.438;1267
691.500;1259
691.563;1247
691.625;1257
691.688;1252
691.750;1250
691.813;1262
691.875;1259
691.938;1247
692.000;1254
692.063;1252
692.125;1250
692.188;1242
692.250;1252
692.313;1257
692.375;1245
692.438;1252
692.500;1252
692.563;1296
692.625;1367
692.688;1479
692.750;1669
692.813;1733
692.875;1699
692.938;1718
693.000;1628
693.063;1472
693.125;1501
693.188;1547
693.250;1477
693.313;1462
693.375;1379
693.438;1271
693.500;1264
693.563;1254
693.625;1252
693.688;1252
693.750;1245
693.813;1250
693.875;1250
693.938;1252
694.000;1250
694.063;1257
694.125;1254
694.188;1250
694.250;1257
694.313;1254
694.375;1252
694.438;1245
694.500;1254
694.563;1259
694.625;1247
694.688;1252
694.750;1240
694.813;1245
694.875;1250
694.938;1254
695.000;1245
695.063;1250
695.125;1245
695.188;1254
695.250;1242
695.313;1247
695.375;1250
695.438;1245
695.500;1245
695.563;1240
695.625;1245
695.688;1247
695.750;1237
695.813;1242
695.875;1250
695.938;1250
696.000;1245
696.063;1250
696.125;1252
696.188;1247
696.250;1245
696.313;1245
696.375;1252
696.438;1242
696.500;1252
696.563;1242
696.625;1250
696.688;1259
696.750;1262
696.813;1267
696.875;1274
696.938;1259
697.000;1247
697.063;1247
697.125;1247
697.188;1252
697.250;1259
697.313;1245
697.375;1252
697.438;1252
697.500;1252
697.563;1252
697.625;1250
697.688;1254
697.750;1252
697.813;1247
697.875;1247
697.938;1252
698.000;1247
698.063;1257
698.125;1257
698.188;1242
698.250;1254
698.313;1250
698.375;1242
698.438;1250
698.500;1259
698.563;1247
698.625;1250
698.688;1252
698.750;1254
698.813;1245
698.875;1247
698.938;1247
699.000;1245
699.063;1245
699.125;1250
699.188;1250
699.250;1242
699.313;1254
699.375;1250
699.438;1257
699.500;1245
699.563;1250
699.625;1242
699.688;1252
699.750;1252
699.813;1245
699.875;1240
699.938;1240
700.000;1250
700.063;1254
700.125;1247
700.188;1252
700.250;1250
700.313;1245
700.375;1247
700.438;1242
700.500;1245
700.563;1254
700.625;1252
700.688;1250
700.750;1250
700.813;1250
700.875;1252
700.938;1245
701.000;1252
701.063;1245
701.125;1250
701.188;1250
701.250;1250
701.313;1259
701.375;1250
701.438;1252
701.500;1257
701.563;1252
701.625;1242
701.688;1250
701.750;1237
701.813;1252
701.875;1250
701.938;1257
702.000;1257
702.063;1250
702.125;1250
702.188;1245
702.250;1252
702.313;1245
702.375;1250
702.438;1247
702.500;1252
702.563;1245
702.625;1245
702.688;1237
702.750;1257
702.813;1247
702.875;1259
702.938;1252
703.000;1242
703.063;1262
703.125;1257
703.188;1254
703.250;1250
703.313;1242
703.375;1252
703.438;1247
703.500;1240
703.563;1237
703.625;1250
703.688;1250
703.750;1250
703.813;1250
703.875;1242
703.938;1245
704.000;1250
704.063;1262
704.125;1254
704.188;1252
704.250;1252
704.313;1257
704.375;1252
704.438;1257
704.500;1254
704.563;1245
704.625;1257
704.688;1245
704.750;1262
704.813;1245
704.875;1252
704.938;1250
705.000;1257
705.063;1240
705.125;1242
705.188;1250
705.250;1245
705.313;1252
705.375;1242
705.438;1250
705.500;1250
705.563;1250
705.625;1254
705.688;1250
705.750;1254
705.813;1254
705.875;1242
705.938;1250
706.000;1247
706.063;1252
706.125;1245
706.188;1250
706.250;1247
706.313;1247
706.375;1254
706.438;1242
706.500;1254
706.563;1250
706.625;1252
706.688;1242
706.750;1230
706.813;1250
706.875;1252
706.938;1247
707.000;1257
707.063;1250
707.125;1262
707.188;1250
707.250;1245
707.313;1250
707.375;1252
707.438;1245
707.500;1247
707.563;1259
707.625;1259
707.688;1257
707.750;1262
707.813;1252
707.875;1250
707.938;1250
708.000;1254
708.063;1254
708.125;1247
708.188;1242
708.250;1250
708.313;1250
708.375;1250
708.438;1245
708.500;1250
708.563;1254
708.625;1257
708.688;1252
708.750;1240
708.813;1254
708.875;1247
708.938;1252
709.000;1257
709.063;1252
709.125;1252
709.188;1259
709.250;1259
709.313;1252
709.375;1257
709.438;1252
709.500;1254
709.563;1242
709.625;1240
709.688;1242
709.750;1245
709.813;1245
709.875;1254
709.938;1254
710.000;1247
710.063;1247
710.125;1250
710.188;1250
710.250;1250
710.313;1257
710.375;1257
710.438;1259
710.500;1257
710.563;1252
710.625;1254
710.688;1264
710.750;1259
710.813;1254
710.875;1293
710.938;1279
711.000;1279
711.063;1330
711.125;1496
711.188;1762
711.250;1892
711.313;1992
711.375;1923
711.438;1872
711.500;1875
711.563;1652
711.625;1437
711.688;1301
711.750;1279
711.813;1286
711.875;1262
711.938;1269
712.000;1247
712.063;1252
712.125;1252
712.188;1257
712.250;1259
712.313;1245
712.375;1242
712.438;1250
712.500;1242
712.563;1240
712.625;1252
712.688;1245
712.750;1245
712.813;1254
712.875;1254
712.938;1245
713.000;1250
713.063;1245
713.125;1250
713.188;1262
713.250;1257
713.313;1245
713.375;1245
713.438;1250
713.500;1254
713.563;1254
713.625;1247
713.688;1250
713.750;1247
713.813;1250
713.875;1250
713.938;1259
714.000;1242
714.063;1250
714.125;1254
714.188;1245
714.250;1254
714.313;1242
714.375;1245
714.438;1250
714.500;1257
714.563;1257
714.625;1245
714.688;1245
714.750;1250
714.813;1259
714.875;1254
714.938;1250
715.000;1252
715.063;1245
715.125;1257
715.188;1286
715.250;1313
715.313;1313
715.375;1330
715.438;1301
715.500;1284
715.563;1250
715.625;1259
715.688;1250
715.750;1264
715.813;1262
715.875;1250
715.938;1257
716.000;1247
716.063;1250
716.125;1247
716.188;1247
716.250;1250
716.313;1254
716.375;1245
716.438;1250
716.500;1254
716.563;1252
716.625;1264
716.688;1347
716.750;1437
716.813;1472
716.875;1472
716.938;1440
717.000;1442
717.063;1408
717.125;1394
717.188;1398
717.250;1374
717.313;1362
717.375;1333
717.438;1303
717.500;1279
717.563;1259
717.625;1245
717.688;1250
717.750;1240
717.813;1240
717.875;1252
717.938;1242
718.000;1250
718.063;1259
718.125;1240
718.188;1245
718.250;1235
718.313;1247
718.375;1247
718.438;1250
718.500;1254
718.563;1250
718.625;1252
718.688;1245
718.750;1247
718.813;1245
718.875;1250
718.938;1252
719.000;1245
719.063;1257
719.125;1252
719.188;1240
719.250;1247
719.313;1250
719.375;1254
719.438;1250
719.500;1247
719.563;1247
719.625;1247
719.688;1252
719.750;1257
719.813;1247
719.875;1259
719.938;1247
720.000;1252
720.063;1250
720.125;1250
720.188;1257
720.250;1257
720.313;1259
720.375;1247
720.438;1254
720.500;1247
720.563;1254
720.625;1245
720.688;1242
720.750;1250
720.813;1247
720.875;1257
720.938;1250
721.000;1252
721.063;1250
721.125;1240
721.188;1262
721.250;1247
721.313;1250
721.375;1245
721.438;1245
721.500;1252
721.563;1237
721.625;1257
721.688;1247
721.750;1242
721.813;1242
721.875;1240
721.938;1247
722.000;1254
722.063;1250
722.125;1252
722.188;1247
722.250;1250
722.313;1245
722.375;1247
722.438;1252
722.500;1245
722.563;1250
722.625;1252
722.688;1247
722.750;1250
722.813;1247
722.875;1247
722.938;1250
723.000;1247
723.063;1250
723.125;1245
723.188;1250
723.250;1257
723.313;1252
723.375;1252
723.438;1259
723.500;1257
723.563;1257
723.625;1252
723.688;1252
723.750;1254
723.813;1242
723.875;1247
723.938;1250
724.000;1242
724.063;1247
724.125;1242
724.188;1245
724.250;1254
724.313;1254
724.375;1240
724.438;1252
724.500;1245
724.563;1247
724.625;1250
724.688;1262
724.750;1247
724.813;1247
724.875;1250
724.938;1259
725.000;1240
725.063;1259
725.125;1242
725.188;1240
725.250;1250
725.313;1252
725.375;1247
725.438;1250
725.500;1250
725.563;1250
725.625;1250
725.688;1250
725.750;1240
725.813;1247
725.875;1250
725.938;1250
726.000;1245
726.063;1245
726.125;1250
726.188;1252
726.250;1257
726.313;1254
726.375;1259
726.438;1242
726.500;1254
726.563;1247
726.625;1240
726.688;1245
726.750;1242
726.813;1254
726.875;1250
726.938;1250
727.000;1252
727.063;1250
727.125;1250
727.188;1252
727.250;1250
727.313;1237
727.375;1247
727.438;1259
727.500;1254
727.563;1250
727.625;1245
727.688;1254
727.750;1259
727.813;1254
727.875;1252
727.938;1254
728.000;1252
728.063;1240
728.125;1247
728.188;1247
728.250;1247
728.313;1250
728.375;1252
728.438;1252
728.500;1240
728.563;1247
728.625;1254
728.688;1250
728.750;1245
728.813;1259
728.875;1250
728.938;1247
729.000;1240
729.063;1245
729.125;1247
729.188;1259
729.250;1247
729.313;1257
729.375;1252
729.438;1254
729.500;1245
729.563;1259
729.625;1252
729.688;1250
729.750;1250
729.813;1250
729.875;1242
729.938;1252
730.000;1247
730.063;1257
730.125;1242
730.188;1247
730.250;1252
730.313;1250
730.375;1250
730.438;1252
730.500;1235
730.563;1250
730.625;1247
730.688;1259
730.750;1247
730.813;1254
730.875;1245
730.938;1247
731.000;1252
731.063;1245
731.125;1245
731.188;1254
731.250;1252
731.313;1240
731.375;1252
731.438;1247
731.500;1250
731.563;1250
731.625;1240
731.688;1254
731.750;1259
731.813;1242
731.875;1250
731.938;1250
732.000;1250
732.063;1247
732.125;1252
732.188;1252
732.250;1250
732.313;1245
732.375;1247
732.438;1245
732.500;1247
732.563;1252
732.625;1252
732.688;1257
732.750;1247
732.813;1242
732.875;1250
732.938;1252
733.000;1245
733.063;1247
733.125;1254
733.188;1250
733.250;1254
733.313;1247
733.375;1247
733.438;1242
733.500;1257
733.563;1257
733.625;1254
733.688;1254
733.750;1245
733.813;1242
733.875;1254
733.938;1252
734.000;1242
734.063;1252
734.125;1242
734.188;1242
734.250;1254
734.313;1242
734.375;1237
734.438;1252
734.500;1245
734.563;1252
734.625;1242
734.688;1242
734.750;1254
734.813;1245
734.875;1247
734.938;1235
735.000;1254
735.063;1250
735.125;1250
735.188;1257
735.250;1247
735.313;1252
735.375;1254
735.438;1259
735.500;1247
735.563;1250
735.625;1245
735.688;1252
735.750;1254
735.813;1245
735.875;1245
735.938;1247
736.000;1254
736.063;1247
736.125;1252
736.188;1240
736.250;1257
736.313;1247
736.375;1240
736.438;1259
736.500;1259
736.563;1247
736.625;1254
736.688;1254
736.750;1259
736.813;1240
736.875;1254
736.938;1257
737.000;1250
737.063;1237
737.125;1245
737.188;1254
737.250;1250
737.313;1254
737.375;1245
737.438;1240
737.500;1252
737.563;1262
737.625;1254
737.688;1252
737.750;1247
737.813;1247
737.875;1252
737.938;1242
738.000;1254
738.063;1252
738.125;1237
738.188;1247
738.250;1245
738.313;1250
738.375;1254
738.438;1245
738.500;1250
738.563;1259
738.625;1245
738.688;1245
738.750;1252
738.813;1250
738.875;1250
738.938;1257
739.000;1242
739.063;1252
739.125;1247
739.188;1242
739.250;1250
739.313;1254
739.375;1250
739.438;1240
739.500;1247
739.563;1252
739.625;1247
739.688;1247
739.750;1250
739.813;1262
739.875;1252
739.938;1250
740.000;1254
740.063;1247
740.125;1257
740.188;1237
740.250;1250
740.313;1257
740.375;1257
740.438;1252
740.500;1245
740.563;1250
740.625;1250
740.688;1240
740.750;1254
740.813;1250
740.875;1250
740.938;1250
741.000;1254
741.063;1254
741.125;1259
741.188;1254
741.250;1254
741.313;1252
741.375;1242
741.438;1252
741.500;1240
741.563;1257
741.625;1250
741.688;1240
741.750;1237
741.813;1254
741.875;1254
741.938;1240
742.000;1254
742.063;1252
742.125;1250
742.188;1245
742.250;1237
742.313;1247
742.375;1252
742.438;1254
742.500;1252
742.563;1245
742.625;1250
742.688;1250
742.750;1242
742.813;1250
742.875;1247
742.938;1252
743.000;1254
743.063;1262
743.125;1245
743.188;1259
743.250;1245
743.313;1259
743.375;1252
743.438;1245
743.500;1245
743.563;1245
743.625;1245
743.688;1245
743.750;1250
743.813;1254
743.875;1257
743.938;1250
744.000;1245
744.063;1252
744.125;1257
744.188;1252
744.250;1252
744.313;1254
744.375;1250
744.438;1242
744.500;1250
744.563;1242
744.625;1252
744.688;1245
744.750;1259
744.813;1245
744.875;1264
744.938;1257
745.000;1252
745.063;1252
745.125;1257
745.188;1254
745.250;1242
745.313;1245
745.375;1250
745.438;1245
745.500;1252
745.563;1252
745.625;1237
745.688;1247
745.750;1250
745.813;1254
745.875;1247
745.938;1254
746.000;1257
746.063;1250
746.125;1245
746.188;1250
746.250;1250
746.313;1250
746.375;1254
746.438;1250
746.500;1257
746.563;1240
746.625;1254
746.688;1250
746.750;1252
746.813;1257
746.875;1247
746.938;1242
747.000;1252
747.063;1245
747.125;1252
747.188;1250
747.250;1242
747.313;1247
747.375;1247
747.438;1250
747.500;1242
747.563;1257
747.625;1250
747.688;1252
747.750;1252
747.813;1240
747.875;1257
747.938;1252
748.000;1254
748.063;1250
748.125;1250
748.188;1247
748.250;1237
748.313;1237
748.375;1245
748.438;1250
748.500;1254
748.563;1250
748.625;1252
748.688;1242
748.750;1247
748.813;1242
748.875;1254
748.938;1245
749.000;1247
749.063;1252
749.125;1250
749.188;1250
749.250;1247
749.313;1247
749.375;1250
749.438;1242
749.500;1252
749.563;1259
749.625;1245
749.688;1252
749.750;1259
749.813;1252
749.875;1257
749.938;1245
750.000;1250
750.063;1245
750.125;1252
750.188;1247
750.250;1245
750.313;1257
750.375;1257
750.438;1257
750.500;1250
750.563;1257
750.625;1247
750.688;1257
750.750;1254
750.813;1250
750.875;1247
750.938;1252
751.000;1250
751.063;1250
751.125;1242
751.188;1254
751.250;1250
751.313;1247
751.375;1242
751.438;1259
751.500;1237
751.563;1254
751.625;1254
751.688;1257
751.750;1250
751.813;1242
751.875;1250
751.938;1257
752.000;1245
752.063;1252
752.125;1259
752.188;1250
752.250;1254
752.313;1247
752.375;1254
752.438;1254
752.500;1250
752.563;1250
752.625;1252
752.688;1247
752.750;1254
752.813;1252
752.875;1257
752.938;1245
753.000;1254
753.063;1259
753.125;1254
753.188;1252
753.250;1245
753.313;1250
753.375;1247
753.438;1245
753.500;1257
753.563;1252
753.625;1247
753.688;1254
753.750;1247
753.813;1247
753.875;1250
753.938;1254
754.000;1252
754.063;1254
754.125;1245
754.188;1250
754.250;1250
754.313;1250
754.375;1250
754.438;1254
754.500;1247
754.563;1254
754.625;1250
754.688;1254
754.750;1245
754.813;1247
754.875;1254
754.938;1252
755.000;1250
755.063;1252
755.125;1245
755.188;1250
755.250;1254
755.313;1254
755.375;1250
755.438;1252
755.500;1247
755.563;1250
755.625;1252
755.688;1247
755.750;1250
755.813;1250
755.875;1247
755.938;1252
756.000;1245
756.063;1252
756.125;1247
756.188;1250
756.250;1254
756.313;1242
756.375;1242
756.438;1235
756.500;1247
756.563;1254
756.625;1250
756.688;1252
756.750;1264
756.813;1245
756.875;1245
756.938;1247
757.000;1247
757.063;1250
757.125;1257
757.188;1250
757.250;1257
757.313;1252
757.375;1252
757.438;1257
757.500;1254
757.563;1250
757.625;1247
757.688;1247
757.750;1247
757.813;1247
757.875;1250
757.938;1250
758.000;1250
758.063;1245
758.125;1250
758.188;1257
758.250;1245
758.313;1254
758.375;1250
758.438;1240
758.500;1242
758.563;1240
758.625;1254
758.688;1254
758.750;1247
758.813;1252
758.875;1247
758.938;1252
759.000;1247
759.063;1252
759.125;1250
759.188;1245
759.250;1242
759.313;1252
759.375;1250
759.438;1262
759.500;1237
759.563;1240
759.625;1247
759.688;1254
759.750;1240
759.813;1250
759.875;1245
759.938;1242
760.000;1250
760.063;1250
760.125;1245
760.188;1254
760.250;1252
760.313;1245
760.375;1254
760.438;1245
760.500;1257
760.563;1242
760.625;1247
760.688;1250
760.750;1247
760.813;1257
760.875;1250
760.938;1257
761.000;1245
761.063;1252
761.125;1252
761.188;1254
761.250;1245
761.313;1237
761.375;1245
761.438;1254
761.500;1247
761.563;1250
761.625;1252
761.688;1245
761.750;1250
761.813;1254
761.875;1257
761.938;1247
762.000;1252
762.063;1257
762.125;1250
762.188;1257
762.250;1240
762.313;1250
762.375;1250
762.438;1250
762.500;1254
762.563;1257
762.625;1245
762.688;1252
762.750;1252
762.813;1242
762.875;1245
762.938;1252
763.000;1240
763.063;1264
763.125;1242
763.188;1247
763.250;1254
763.313;1242
763.375;1250
763.438;1259
763.500;1259
763.563;1252
763.625;1250
763.688;1259
763.750;1250
763.813;1250
763.875;1237
763.938;1247
764.000;1257
764.063;1254
764.125;1247
764.188;1247
764.250;1254
764.313;1247
764.375;1254
764.438;1250
764.500;1247
764.563;1242
764.625;1240
764.688;1245
764.750;1252
764.813;1259
764.875;1247
764.938;1245
765.000;1250
765.063;1247
765.125;1240
765.188;1235
765.250;1250
765.313;1252
765.375;1250
765.438;1250
765.500;1250
765.563;1250
765.625;1254
765.688;1250
765.750;1250
765.813;1252
765.875;1245
765.938;1250
766.000;1257
766.063;1254
766.125;1250
766.188;1250
766.250;1250
766.313;1242
766.375;1242
766.438;1245
766.500;1257
766.563;1242
766.625;1254
766.688;1259
766.750;1240
766.813;1242
766.875;1257
766.938;1242
767.000;1254
767.063;1247
767.125;1257
767.188;1254
767.250;1250
767.313;1245
767.375;1252
767.438;1247
767.500;1247
767.563;1245
767.625;1242
767.688;1252
767.750;1247
767.813;1242
767.875;1245
767.938;1252
768.000;1254
768.063;1259
768.125;1252
768.188;1252
768.250;1250
768.313;1254
768.375;1237
768.438;1247
768.500;1240
768.563;1245
768.625;1245
768.688;1240
768.750;1247
768.813;1250
768.875;1250
768.938;1257
769.000;1257
769.063;1257
769.125;1259
769.188;1252
769.250;1254
769.313;1252
769.375;1250
769.438;1242
769.500;1240
769.563;1245
769.625;1252
769.688;1250
769.750;1247
769.813;1247
769.875;1250
769.938;1254
770.000;1247
770.063;1242
770.125;1252
770.188;1247
770.250;1240
770.313;1252
770.375;1252
770.438;1245
770.500;1247
770.563;1250
770.625;1247
770.688;1250
770.750;1252
770.813;1252
770.875;1247
770.938;1250
771.000;1240
771.063;1254
771.125;1242
771.188;1250
771.250;1252
771.313;1245
771.375;1254
771.438;1250
771.500;1240
771.563;1245
771.625;1240
771.688;1242
771.750;1242
771.813;1259
771.875;1252
771.938;1242
772.000;1250
772.063;1254
772.125;1245
772.188;1257
772.250;1247
772.313;1245
772.375;1247
772.438;1250
772.500;1247
772.563;1250
772.625;1247
772.688;1250
772.750;1250
772.813;1252
772.875;1245
772.938;1250
773.000;1247
773.063;1242
773.125;1254
773.188;1259
773.250;1245
773.313;1247
773.375;1254
773.438;1254
773.500;1250
773.563;1245
773.625;1257
773.688;1252
773.750;1257
773.813;1259
773.875;1264
773.938;1242
774.000;1247
774.063;1247
774.125;1257
774.188;1247
774.250;1247
774.313;1257
774.375;1252
774.438;1247
774.500;1250
774.563;1245
774.625;1252
774.688;1252
774.750;1245
774.813;1252
774.875;1254
774.938;1257
775.000;1247
775.063;1247
775.125;1250
775.188;1254
775.250;1254
775.313;1252
775.375;1252
775.438;1247
775.500;1250
775.563;1254
775.625;1252
775.688;1240
775.750;1250
775.813;1254
775.875;1262
775.938;1245
776.000;1242
776.063;1257
776.125;1242
776.188;1245
776.250;1250
776.313;1245
776.375;1247
776.438;1247
776.500;1252
776.563;1252
776.625;1245
776.688;1252
776.750;1242
776.813;1247
776.875;1245
776.938;1242
777.000;1252
777.063;1237
777.125;1250
777.188;1247
777.250;1252
777.313;1254
777.375;1242
777.438;1240
777.500;1245
777.563;1257
777.625;1240
777.688;1252
777.750;1252
777.813;1250
777.875;1262
777.938;1245
778.000;1242
778.063;1245
778.125;1250
778.188;1257
778.250;1250
778.313;1250
778.375;1250
778.438;1254
778.500;1245
778.563;1250
778.625;1254
778.688;1242
778.750;1252
778.813;1242
778.875;1237
778.938;1240
779.000;1245
779.063;1240
779.125;1242
779.188;1264
779.250;1250
779.313;1247
779.375;1242
779.438;1252
779.500;1252
779.563;1250
779.625;1250
779.688;1252
779.750;1250
779.813;1257
779.875;1252
779.938;1259
780.000;1250
780.063;1252
780.125;1245
780.188;1257
780.250;1254
780.313;1250
780.375;1250
780.438;1245
780.500;1252
780.563;1252
780.625;1245
780.688;1250
780.750;1252
780.813;1245
780.875;1247
780.938;1240
781.000;1254
781.063;1247
781.125;1240
781.188;1245
781.250;1245
781.313;1237
781.375;1245
781.438;1250
781.500;1242
781.563;1254
781.625;1245
781.688;1245
781.750;1245
781.813;1254
781.875;1252
781.938;1242
782.000;1235
782.063;1247
782.125;1247
782.188;1245
782.250;1250
782.313;1247
782.375;1245
782.438;1247
782.500;1247
782.563;1247
782.625;1250
782.688;1252
782.750;1247
782.813;1259
782.875;1250
782.938;1254
783.000;1252
783.063;1245
783.125;1235
783.188;1242
783.250;1250
783.313;1242
783.375;1247
783.438;1245
783.500;1250
783.563;1257
783.625;1250
783.688;1240
783.750;1245
783.813;1247
783.875;1250
783.938;1245
784.000;1250
784.063;1247
784.125;1257
784.188;1242
784.250;1247
784.313;1247
784.375;1247
784.438;1247
784.500;1257
784.563;1247
784.625;1247
784.688;1247
784.750;1242
784.813;1252
784.875;1257
784.938;1247
785.000;1237
785.063;1257
785.125;1250
785.188;1252
785.250;1250
785.313;1250
785.375;1247
785.438;1245
785.500;1247
785.563;1247
785.625;1252
785.688;1250
785.750;1242
785.813;1245
785.875;1252
785.938;1247
786.000;1247
786.063;1245
786.125;1247
786.188;1247
786.250;1247
786.313;1252
786.375;1252
786.438;1245
786.500;1257
786.563;1252
786.625;1247
786.688;1247
786.750;1242
786.813;1247
786.875;1252
786.938;1237
787.000;1245
787.063;1252
787.125;1252
787.188;1254
787.250;1242
787.313;1250
787.375;1250
787.438;1242
787.500;1250
787.563;1252
787.625;1254
787.688;1240
787.750;1240
787.813;1257
787.875;1252
787.938;1250
788.000;1245
788.063;1250
788.125;1247
788.188;1252
788.250;1240
788.313;1242
788.375;1250
788.438;1247
788.500;1250
788.563;1254
788.625;1242
788.688;1252
788.750;1252
788.813;1247
788.875;1237
788.938;1247
789.000;1242
789.063;1257
789.125;1235
789.188;1250
789.250;1252
789.313;1252
789.375;1240
789.438;1254
789.500;1250
789.563;1245
789.625;1259
789.688;1250
789.750;1250
789.813;1250
789.875;1245
789.938;1254
790.000;1250
790.063;1257
790.125;1235
790.188;1252
790.250;1250
790.313;1250
790.375;1252
790.438;1262
790.500;1247
790.563;1240
790.625;1245
790.688;1247
790.750;1252
790.813;1247
790.875;1245
790.938;1252
791.000;1240
791.063;1252
791.125;1250
791.188;1254
791.250;1247
791.313;1247
791.375;1245
791.438;1245
791.500;1262
791.563;1257
791.625;1254
791.688;1247
791.750;1250
791.813;1250
791.875;1250
791.938;1250
792.000;1245
792.063;1245
792.125;1245
792.188;1254
792.250;1240
792.313;1250
792.375;1247
792.438;1240
792.500;1240
792.563;1252
792.625;1254
792.688;1257
792.750;1245
792.813;1257
792.875;1252
792.938;1250
793.000;1250
793.063;1252
793.125;1259
793.188;1250
793.250;1250
793.313;1252
793.375;1252
793.438;1242
793.500;1257
793.563;1242
793.625;1254
793.688;1252
793.750;1245
793.813;1242
793.875;1245
793.938;1250
794.000;1257
794.063;1250
794.125;1240
794.188;1252
794.250;1254
794.313;1242
794.375;1247
794.438;1242
794.500;1254
794.563;1247
794.625;1247
794.688;1245
794.750;1250
794.813;1252
794.875;1250
794.938;1245
795.000;1240
795.063;1254
795.125;1250
795.188;1242
795.250;1247
795.313;1247
795.375;1250
795.438;1254
795.500;1252
795.563;1245
795.625;1242
795.688;1254
795.750;1250
795.813;1257
795.875;1250
795.938;1247
796.000;1247
796.063;1254
796.125;1250
796.188;1247
796.250;1240
796.313;1252
796.375;1247
796.438;1250
796.500;1235
796.563;1245
796.625;1252
796.688;1242
796.750;1250
796.813;1240
796.875;1247
796.938;1245
797.000;1242
797.063;1242
797.125;1247
797.188;1245
797.250;1257
797.313;1257
797.375;1252
797.438;1242
797.500;1245
797.563;1247
797.625;1242
797.688;1254
797.750;1245
797.813;1250
797.875;1254
797.938;1252
798.000;1242
798.063;1262
798.125;1252
798.188;1252
798.250;1245
798.313;1252
798.375;1250
798.438;1240
798.500;1250
798.563;1250
798.625;1250
798.688;1252
798.750;1252
798.813;1245
798.875;1250
798.938;1245
799.000;1254
799.063;1237
799.125;1245
799.188;1259
799.250;1250
799.313;1242
799.375;1242
799.438;1254
799.500;1252
799.563;1257
799.625;1237
799.688;1252
799.750;1250
799.813;1232
799.875;1242
799.938;1252
800.000;1250
800.063;1250
800.125;1240
800.188;1254
800.250;1257
800.313;1245
800.375;1242
800.438;1247
800.500;1250
800.563;1250
800.625;1245
800.688;1242
800.750;1247
800.813;1240
800.875;1252
800.938;1257
801.000;1242
801.063;1247
801.125;1250
801.188;1259
801.250;1250
801.313;1245
801.375;1245
801.438;1254
801.500;1259
801.563;1237
801.625;1247
801.688;1250
801.750;1252
801.813;1240
801.875;1250
801.938;1259
802.000;1254
802.063;1247
802.125;1252
802.188;1247
802.250;1245
802.313;1245
802.375;1242
802.438;1252
802.500;1250
802.563;1257
802.625;1242
802.688;1250
802.750;1250
802.813;1252
802.875;1250
802.938;1252
803.000;1240
803.063;1247
803.125;1254
803.188;1250
803.250;1247
803.313;1250
803.375;1254
803.438;1250
803.500;1247
803.563;1250
803.625;1250
803.688;1250
803.750;1240
803.813;1262
803.875;1242
803.938;1250
804.000;1247
804.063;1254
804.125;1254
804.188;1252
804.250;1252
804.313;1247
804.375;1257
804.438;1254
804.500;1250
804.563;1245
804.625;1252
804.688;1252
804.750;1240
804.813;1237
804.875;1240
804.938;1247
805.000;1250
805.063;1252
805.125;1252
805.188;1250
805.250;1252
805.313;1245
805.375;1250
805.438;1257
805.500;1252
805.563;1245
805.625;1250
805.688;1247
805.750;1250
805.813;1247
805.875;1242
805.938;1247
806.000;1252
806.063;1245
806.125;1245
806.188;1252
806.250;1257
806.313;1245
806.375;1252
806.438;1252
806.500;1252
806.563;1242
806.625;1264
806.688;1250
806.750;1250
806.813;1247
806.875;1250
806.938;1250
807.000;1250
807.063;1252
807.125;1245
807.188;1252
807.250;1250
807.313;1242
807.375;1245
807.438;1252
807.500;1259
807.563;1252
807.625;1257
807.688;1247
807.750;1252
807.813;1250
807.875;1250
807.938;1242
808.000;1252
808.063;1247
808.125;1245
808.188;1237
808.250;1257
808.313;1250
808.375;1250
808.438;1257
808.500;1252
808.563;1232
808.625;1245
808.688;1252
808.750;1245
808.813;1250
808.875;1245
808.938;1267
809.000;1257
809.063;1242
809.125;1247
809.188;1250
809.250;1252
809.313;1252
809.375;1242
809.438;1247
809.500;1257
809.563;1247
809.625;1250
809.688;1250
809.750;1257
809.813;1245
809.875;1254
809.938;1240
810.000;1250
810.063;1242
810.125;1240
810.188;1252
810.250;1245
810.313;1240
810.375;1247
810.438;1247
810.500;1250
810.563;1254
810.625;1242
810.688;1245
810.750;1247
810.813;1254
810.875;1247
810.938;1254
811.000;1235
811.063;1254
811.125;1252
811.188;1254
811.250;1247
811.313;1250
811.375;1252
811.438;1247
811.500;1259
811.563;1245
811.625;1254
811.688;1257
811.750;1237
811.813;1254
811.875;1250
811.938;1252
812.000;1240
812.063;1252
812.125;1250
812.188;1250
812.250;1240
812.313;1254
812.375;1247
812.438;1254
812.500;1245
812.563;1245
812.625;1250
812.688;1250
812.750;1250
812.813;1247
812.875;1245
812.938;1257
813.000;1247
813.063;1240
813.125;1257
813.188;1245
813.250;1252
813.313;1245
813.375;1250
813.438;1250
813.500;1247
813.563;1242
813.625;1250
813.688;1250
813.750;1250
813.813;1240
813.875;1252
813.938;1250
814.000;1257
814.063;1250
814.125;1252
814.188;1247
814.250;1245
814.313;1245
814.375;1252
814.438;1259
814.500;1252
814.563;1245
814.625;1252
814.688;1259
814.750;1247
814.813;1252
814.875;1254
814.938;1250
815.000;1245
815.063;1250
815.125;1252
815.188;1257
815.250;1254
815.313;1252
815.375;1254
815.438;1245
815.500;1240
815.563;1245
815.625;1250
815.688;1252
815.750;1245
815.813;1254
815.875;1247
815.938;1257
816.000;1242
816.063;1254
816.125;1237
816.188;1247
816.250;1237
816.313;1254
816.375;1252
816.438;1254
816.500;1247
816.563;1237
816.625;1247
816.688;1254
816.750;1254
816.813;1254
816.875;1252
816.938;1250
817.000;1252
817.063;1250
817.125;1242
817.188;1245
817.250;1245
817.313;1252
817.375;1247
817.438;1237
817.500;1245
817.563;1250
817.625;1254
817.688;1252
817.750;1235
817.813;1250
817.875;1240
817.938;1245
818.000;1247
818.063;1254
818.125;1247
818.188;1247
818.250;1252
818.313;1242
818.375;1262
818.438;1257
818.500;1262
818.563;1250
818.625;1252
818.688;1240
818.750;1245
818.813;1250
818.875;1250
818.938;1235
819.000;1254
819.063;1259
819.125;1242
819.188;1262
819.250;1245
819.313;1247
819.375;1245
819.438;1245
819.500;1247
819.563;1245
819.625;1250
819.688;1250
819.750;1250
819.813;1242
819.875;1252
819.938;1250
820.000;1250
820.063;1252
820.125;1250
820.188;1245
820.250;1252
820.313;1257
820.375;1235
820.438;1250
820.500;1240
820.563;1247
820.625;1252
820.688;1242
820.750;1250
820.813;1250
820.875;1247
820.938;1240
821.000;1250
821.063;1250
821.125;1245
821.188;1252
821.250;1262
821.313;1245
821.375;1252
821.438;1252
821.500;1250
821.563;1245
821.625;1250
821.688;1250
821.750;1252
821.813;1250
821.875;1250
821.938;1252
822.000;1252
822.063;1252
822.125;1250
822.188;1247
822.250;1252
822.313;1259
822.375;1245
822.438;1252
822.500;1242
822.563;1245
822.625;1252
822.688;1250
822.750;1254
822.813;1252
822.875;1240
822.938;1252
823.000;1257
823.063;1247
823.125;1247
823.188;1252
823.250;1245
823.313;1250
823.375;1247
823.438;1235
823.500;1252
823.563;1254
823.625;1250
823.688;1245
823.750;1247
823.813;1252
823.875;1242
823.938;1252
824.000;1247
824.063;1240
824.125;1252
824.188;1240
824.250;1250
824.313;1247
824.375;1250
824.438;1245
824.500;1237
824.563;1240
824.625;1245
824.688;1245
824.750;1250
824.813;1252
824.875;1242
824.938;1259
825.000;1250
825.063;1250
825.125;1252
825.188;1250
825.250;1242
825.313;1242
825.375;1240
825.438;1237
825.500;1247
825.563;1242
825.625;1235
825.688;1237
825.750;1247
825.813;1254
825.875;1245
825.938;1242
826.000;1237
826.063;1245
826.125;1250
826.188;1250
826.250;1262
826.313;1250
826.375;1247
826.438;1254
826.500;1250
826.563;1240
826.625;1240
826.688;1242
826.750;1240
826.813;1242
826.875;1245
826.938;1252
827.000;1250
827.063;1247
827.125;1247
827.188;1245
827.250;1250
827.313;1245
827.375;1245
827.438;1245
827.500;1250
827.563;1240
827.625;1257
827.688;1250
827.750;1242
827.813;1247
827.875;1247
827.938;1252
828.000;1240
828.063;1250
828.125;1245
828.188;1254
828.250;1242
828.313;1250
828.375;1252
828.438;1252
828.500;1237
828.563;1247
828.625;1247
828.688;1247
828.750;1257
828.813;1240
828.875;1250
828.938;1250
829.000;1257
829.063;1254
829.125;1250
829.188;1240
829.250;1252
829.313;1252
829.375;1240
829.438;1240
829.500;1250
829.563;1250
829.625;1240
829.688;1240
829.750;1257
829.813;1245
829.875;1250
829.938;1250
830.000;1247
830.063;1247
830.125;1247
830.188;1242
830.250;1257
830.313;1245
830.375;1252
830.438;1242
830.500;1254
830.563;1254
830.625;1237
830.688;1245
830.750;1250
830.813;1245
830.875;1252
830.938;1247
831.000;1254
831.063;1250
831.125;1250
831.188;1252
831.250;1240
831.313;1247
831.375;1245
831.438;1254
831.500;1237
831.563;1250
831.625;1245
831.688;1240
831.750;1254
831.813;1257
831.875;1257
831.938;1250
832.000;1250
832.063;1250
832.125;1259
832.188;1247
832.250;1254
832.313;1247
832.375;1252
832.438;1237
832.500;1247
832.563;1237
832.625;1250
832.688;1250
832.750;1245
832.813;1240
832.875;1247
832.938;1257
833.000;1252
833.063;1237
833.125;1254
833.188;1247
833.250;1259
833.313;1257
833.375;1247
833.438;1252
833.500;1247
833.563;1250
833.625;1240
833.688;1254
833.750;1252
833.813;1245
833.875;1247
833.938;1250
834.000;1245
834.063;1252
834.125;1250
834.188;1245
834.250;1247
834.313;1242
834.375;1242
834.438;1254
834.500;1240
834.563;1250
834.625;1257
834.688;1247
834.750;1247
834.813;1252
834.875;1250
834.938;1250
835.000;1245
835.063;1240
835.125;1252
835.188;1250
835.250;1250
835.313;1250
835.375;1250
835.438;1250
835.500;1250
835.563;1245
835.625;1252
835.688;1245
835.750;1250
835.813;1237
835.875;1247
835.938;1252
836.000;1245
836.063;1247
836.125;1242
836.188;1247
836.250;1242
836.313;1250
836.375;1257
836.438;1230
836.500;1242
836.563;1247
836.625;1247
836.688;1247
836.750;1242
836.813;1250
836.875;1247
836.938;1242
837.000;1247
837.063;1245
837.125;1250
837.188;1252
837.250;1242
837.313;1250
837.375;1259
837.438;1237
837.500;1242
837.563;1247
837.625;1250
837.688;1247
837.750;1254
837.813;1245
837.875;1252
837.938;1250
838.000;1247
838.063;1254
838.125;1247
838.188;1252
838.250;1254
838.313;1245
838.375;1240
838.438;1242
838.500;1235
838.563;1240
838.625;1250
838.688;1242
838.750;1254
838.813;1252
838.875;1254
838.938;1252
839.000;1247
839.063;1242
839.125;1250
839.188;1250
839.250;1252
839.313;1235
839.375;1250
839.438;1240
839.500;1240
839.563;1254
839.625;1250
839.688;1254
839.750;1257
839.813;1245
839.875;1247
839.938;1252
840.000;1245
840.063;1250
840.125;1254
840.188;1245
840.250;1245
840.313;1247
840.375;1235
840.438;1247
840.500;1242
840.563;1250
840.625;1242
840.688;1247
840.750;1250
840.813;1247
840.875;1250
840.938;1242
841.000;1245
841.063;1245
841.125;1247
841.188;1250
841.250;1237
841.313;1242
841.375;1257
841.438;1254
841.500;1240
841.563;1247
841.625;1240
841.688;1240
841.750;1250
841.813;1252
841.875;1240
841.938;1257
842.000;1257
842.063;1257
842.125;1242
842.188;1250
842.250;1250
842.313;1252
842.375;1247
842.438;1250
842.500;1242
842.563;1250
842.625;1245
842.688;1254
842.750;1257
842.813;1240
842.875;1245
842.938;1237
843.000;1247
843.063;1242
843.125;1262
843.188;1250
843.250;1247
843.313;1252
843.375;1250
843.438;1250
843.500;1240
843.563;1252
843.625;1252
843.688;1245
843.750;1250
843.813;1245
843.875;1245
843.938;1254
844.000;1252
844.063;1235
844.125;1245
844.188;1235
844.250;1247
844.313;1254
844.375;1250
844.438;1242
844.500;1247
844.563;1250
844.625;1259
844.688;1252
844.750;1252
844.813;1252
844.875;1237
844.938;1250
845.000;1245
845.063;1235
845.125;1235
845.188;1247
845.250;1250
845.313;1245
845.375;1247
845.438;1252
845.500;1245
845.563;1240
845.625;1250
845.688;1245
845.750;1242
845.813;1252
845.875;1242
845.938;1252
846.000;1242
846.063;1250
846.125;1247
846.188;1250
846.250;1235
846.313;1245
846.375;1254
846.438;1247
846.500;1252
846.563;1240
846.625;1247
846.688;1245
846.750;1240
846.813;1257
846.875;1250
846.938;1242
847.000;1242
847.063;1242
847.125;1245
847.188;1245
847.250;1252
847.313;1245
847.375;1252
847.438;1250
847.500;1257
847.563;1250
847.625;1254
847.688;1242
847.750;1252
847.813;1247
847.875;1242
847.938;1240
848.000;1247
848.063;1247
848.125;1254
848.188;1242
848.250;1242
848.313;1235
848.375;1250
848.438;1242
848.500;1240
848.563;1250
848.625;1252
848.688;1240
848.750;1250
848.813;1250
848.875;1242
848.938;1250
849.000;1245
849.063;1250
849.125;1252
849.188;1247
849.250;1242
849.313;1247
849.375;1250
849.438;1242
849.500;1242
849.563;1240
849.625;1245
849.688;1254
849.750;1240
849.813;1250
849.875;1245
849.938;1247
850.000;1247
850.063;1250
850.125;1245
850.188;1252
850.250;1247
850.313;1247
850.375;1245
850.438;1254
850.500;1252
850.563;1245
850.625;1250
850.688;1247
850.750;1250
850.813;1245
850.875;1242
850.938;1250
851.000;1247
851.063;1254
851.125;1247
851.188;1230
851.250;1247
851.313;1245
851.375;1242
851.438;1252
851.500;1252
851.563;1245
851.625;1247
851.688;1252
851.750;1247
851.813;1247
851.875;1245
851.938;1250
852.000;1242
852.063;1250
852.125;1242
852.188;1250
852.250;1240
852.313;1247
852.375;1250
852.438;1254
852.500;1250
852.563;1240
852.625;1240
852.688;1247
852.750;1250
852.813;1245
852.875;1252
852.938;1245
853.000;1250
853.063;1254
853.125;1242
853.188;1245
853.250;1247
853.313;1240
853.375;1250
853.438;1245
853.500;1237
853.563;1254
853.625;1242
853.688;1259
853.750;1245
853.813;1247
853.875;1240
853.938;1247
854.000;1235
854.063;1250
854.125;1240
854.188;1250
854.250;1250
854.313;1247
854.375;1250
854.438;1250
854.500;1247
854.563;1245
854.625;1250
854.688;1247
854.750;1247
854.813;1247
854.875;1257
854.938;1293
855.000;1479
855.063;1574
855.125;1643
855.188;1594
855.250;1557
855.313;1506
855.375;1318
855.438;1252
855.500;1254
855.563;1242
855.625;1245
855.688;1247
855.750;1247
855.813;1247
855.875;1242
855.938;1252
856.000;1237
856.063;1252
856.125;1245
856.188;1230
856.250;1247
856.313;1247
856.375;1237
856.438;1245
856.500;1237
856.563;1242
856.625;1247
856.688;1250
856.750;1250
856.813;1237
856.875;1242
856.938;1245
857.000;1245
857.063;1247
857.125;1237
857.188;1247
857.250;1245
857.313;1242
857.375;1242
857.438;1247
857.500;1250
857.563;1245
857.625;1242
857.688;1247
857.750;1250
857.813;1245
857.875;1250
857.938;1240
858.000;1245
858.063;1245
858.125;1245
858.188;1237
858.250;1240
858.313;1252
858.375;1247
858.438;1245
858.500;1242
858.563;1254
858.625;1245
858.688;1250
858.750;1252
858.813;1230
858.875;1250
858.938;1235
859.000;1247
859.063;1257
859.125;1237
859.188;1237
859.250;1245
859.313;1247
859.375;1250
859.438;1245
859.500;1245
859.563;1242
859.625;1252
859.688;1250
859.750;1247
859.813;1242
859.875;1250
859.938;1245
860.000;1245
860.063;1245
860.125;1245
860.188;1245
860.250;1252
860.313;1247
860.375;1252
860.438;1250
860.500;1237
860.563;1252
860.625;1250
860.688;1235
860.750;1242
860.813;1247
860.875;1247
860.938;1237
861.000;1240
861.063;1240
861.125;1245
861.188;1245
861.250;1242
861.313;1245
861.375;1237
861.438;1250
861.500;1252
861.563;1242
861.625;1245
861.688;1247
861.750;1250
861.813;1245
861.875;1237
861.938;1240
862.000;1245
862.063;1250
862.125;1242
862.188;1237
862.250;1252
862.313;1247
862.375;1242
862.438;1252
862.500;1237
862.563;1240
862.625;1250
862.688;1240
862.750;1245
862.813;1237
862.875;1235
862.938;1250
863.000;1245
863.063;1252
863.125;1247
863.188;1245
863.250;1247
863.313;1250
863.375;1245
863.438;1237
863.500;1242
863.563;1247
863.625;1254
863.688;1240
863.750;1247
863.813;1240
863.875;1240
863.938;1237
864.000;1240
864.063;1254
864.125;1242
864.188;1252
864.250;1245
864.313;1247
864.375;1242
864.438;1247
864.500;1245
864.563;1245
864.625;1245
864.688;1247
864.750;1237
864.813;1264
864.875;1242
864.938;1237
865.000;1247
865.063;1250
865.125;1242
865.188;1245
865.250;1245
865.313;1240
865.375;1245
865.438;1247
865.500;1250
865.563;1247
865.625;1237
865.688;1240
865.750;1250
865.813;1262
865.875;1245
865.938;1242
866.000;1240
866.063;1235
866.125;1247
866.188;1247
866.250;1235
866.313;1250
866.375;1245
866.438;1245
866.500;1242
866.563;1237
866.625;1245
866.688;1240
866.750;1242
866.813;1247
866.875;1247
866.938;1245
867.000;1245
867.063;1240
867.125;1240
867.188;1247
867.250;1240
867.313;1235
867.375;1245
867.438;1247
867.500;1252
867.563;1245
867.625;1252
867.688;1235
867.750;1242
867.813;1242
867.875;1247
867.938;1250
868.000;1245
868.063;1240
868.125;1247
868.188;1247
868.250;1252
868.313;1247
868.375;1252
868.438;1242
868.500;1247
868.563;1259
868.625;1250
868.688;1250
868.750;1250
868.813;1245
868.875;1242
868.938;1245
869.000;1242
869.063;1235
869.125;1250
869.188;1242
869.250;1245
869.313;1240
869.375;1237
869.438;1240
869.500;1252
869.563;1240
869.625;1245
869.688;1245
869.750;1228
869.813;1250
869.875;1240
869.938;1254
870.000;1247
