Frequency[MHz];Amplitude RX1[mV] at pwm=120
 45.000;1198
 45.063;1662
 45.125;1643
 45.188;1577
 45.250;1477
 45.313;1511
 45.375;1289
 45.438;1525
 45.500;1479
 45.563;1525
 45.625;1525
 45.688;1511
 45.750;1562
 45.813;1894
 45.875;1982
 45.938;1437
 46.000;1350
 46.063;1342
 46.125;1350
 46.188;1330
 46.250;1525
 46.313;1350
 46.375;1323
 46.438;1303
 46.500;1301
 46.563;1340
 46.625;1345
 46.688;1511
 46.750;1345
 46.813;1408
 46.875;1447
 46.938;1396
 47.000;1381
 47.063;1462
 47.125;1433
 47.188;1411
 47.250;1350
 47.313;1333
 47.375;1330
 47.438;1403
 47.500;1574
 47.563;1755
 47.625;1789
 47.688;1872
 47.750;1928
 47.813;1901
 47.875;1779
 47.938;1472
 48.000;1362
 48.063;1347
 48.125;1347
 48.188;1318
 48.250;1347
 48.313;1386
 48.375;1386
 48.438;1396
 48.500;1374
 48.563;1354
 48.625;1354
 48.688;1357
 48.750;1335
 48.813;1330
 48.875;1342
 48.938;1406
 49.000;1472
 49.063;1364
 49.125;1367
 49.188;1379
 49.250;1384
 49.313;1374
 49.375;1372
 49.438;1430
 49.500;1459
 49.563;1445
 49.625;1477
 49.688;1462
 49.750;1433
 49.813;1408
 49.875;1381
 49.938;1362
 50.000;1333
 50.063;1347
 50.125;1372
 50.188;1813
 50.250;1901
 50.313;1813
 50.375;1538
 50.438;1445
 50.500;1628
 50.563;1569
 50.625;1542
 50.688;1616
 50.750;1687
 50.813;1633
 50.875;1625
 50.938;1447
 51.000;1408
 51.063;1398
 51.125;1403
 51.188;1416
 51.250;1408
 51.313;1411
 51.375;1391
 51.438;1389
 51.500;1447
 51.563;1472
 51.625;1677
 51.688;1743
 51.750;1704
 51.813;1701
 51.875;1733
 51.938;1765
 52.000;1730
 52.063;1679
 52.125;1665
 52.188;1574
 52.250;1508
 52.313;1452
 52.375;1464
 52.438;1479
 52.500;1489
 52.563;1450
 52.625;1425
 52.688;1430
 52.750;1403
 52.813;1372
 52.875;1376
 52.938;1428
 53.000;1435
 53.063;1442
 53.125;1447
 53.188;1447
 53.250;1455
 53.313;1472
 53.375;1435
 53.438;1413
 53.500;1430
 53.563;1469
 53.625;1499
 53.688;1503
 53.750;1496
 53.813;1496
 53.875;1516
 53.938;1655
 54.000;1706
 54.063;1765
 54.125;1713
 54.188;1689
 54.250;1672
 54.313;1643
 54.375;1584
 54.438;1538
 54.500;1513
 54.563;1494
 54.625;1455
 54.688;1442
 54.750;1435
 54.813;1435
 54.875;1418
 54.938;1420
 55.000;1445
 55.063;1457
 55.125;1564
 55.188;1694
 55.250;1503
 55.313;1455
 55.375;1457
 55.438;1450
 55.500;1442
 55.563;1455
 55.625;1447
 55.688;1459
 55.750;1523
 55.813;1691
 55.875;1918
 55.938;2207
 56.000;2326
 56.063;2351
 56.125;2353
 56.188;2346
 56.250;2341
 56.313;2260
 56.375;2065
 56.438;1813
 56.500;1574
 56.563;1525
 56.625;1430
 56.688;1418
 56.750;1428
 56.813;1425
 56.875;1408
 56.938;1411
 57.000;1401
 57.063;1394
 57.125;1394
 57.188;1538
 57.250;1599
 57.313;1533
 57.375;1481
 57.438;1503
 57.500;1508
 57.563;1491
 57.625;1564
 57.688;1628
 57.750;1625
 57.813;1623
 57.875;1582
 57.938;1569
 58.000;1589
 58.063;1567
 58.125;1560
 58.188;1513
 58.250;1508
 58.313;1606
 58.375;1489
 58.438;1430
 58.500;1416
 58.563;1406
 58.625;1386
 58.688;1376
 58.750;1396
 58.813;1394
 58.875;1394
 58.938;1489
 59.000;1518
 59.063;1423
 59.125;1413
 59.188;1420
 59.250;1403
 59.313;1394
 59.375;1376
 59.438;1394
 59.500;1472
 59.563;1628
 59.625;1682
 59.688;1665
 59.750;1567
 59.813;1586
 59.875;1569
 59.938;1474
 60.000;1477
 60.063;1489
 60.125;1535
 60.188;1542
 60.250;1569
 60.313;1547
 60.375;1552
 60.438;1572
 60.500;1562
 60.563;1550
 60.625;1518
 60.688;1486
 60.750;1542
 60.813;1562
 60.875;1567
 60.938;1552
 61.000;1516
 61.063;1484
 61.125;1477
 61.188;1462
 61.250;1425
 61.313;1411
 61.375;1413
 61.438;1418
 61.500;1477
 61.563;1599
 61.625;1628
 61.688;1682
 61.750;1745
 61.813;1704
 61.875;1608
 61.938;1425
 62.000;1389
 62.063;1389
 62.125;1381
 62.188;1376
 62.250;1413
 62.313;1525
 62.375;1469
 62.438;1643
 62.500;1669
 62.563;1796
 62.625;1840
 62.688;1875
 62.750;1945
 62.813;1889
 62.875;1848
 62.938;1645
 63.000;1572
 63.063;1479
 63.125;1455
 63.188;1445
 63.250;1425
 63.313;1430
 63.375;1425
 63.438;1430
 63.500;1494
 63.563;1530
 63.625;1589
 63.688;1555
 63.750;1501
 63.813;1484
 63.875;1445
 63.938;1433
 64.000;1428
 64.063;1442
 64.125;1462
 64.188;1469
 64.250;1489
 64.313;1481
 64.375;1479
 64.438;1481
 64.500;1506
 64.563;1567
 64.625;1640
 64.688;1662
 64.750;1750
 64.813;1738
 64.875;1743
 64.938;1508
 65.000;1408
 65.063;1379
 65.125;1413
 65.188;1545
 65.250;1457
 65.313;1423
 65.375;1394
 65.438;1389
 65.500;1408
 65.563;1401
 65.625;1452
 65.688;1547
 65.750;1528
 65.813;1508
 65.875;1513
 65.938;1496
 66.000;1469
 66.063;1435
 66.125;1428
 66.188;1367
 66.250;1337
 66.313;1357
 66.375;1401
 66.438;1430
 66.500;1437
 66.563;1420
 66.625;1403
 66.688;1403
 66.750;1372
 66.813;1323
 66.875;1315
 66.938;1311
 67.000;1320
 67.063;1381
 67.125;1437
 67.188;1435
 67.250;1457
 67.313;1440
 67.375;1420
 67.438;1386
 67.500;1484
 67.563;1569
 67.625;1591
 67.688;1508
 67.750;1472
 67.813;1499
 67.875;1494
 67.938;1486
 68.000;1472
 68.063;1491
 68.125;1486
 68.188;1491
 68.250;1538
 68.313;1623
 68.375;1599
 68.438;1589
 68.500;1569
 68.563;1550
 68.625;1435
 68.688;1437
 68.750;1347
 68.813;1340
 68.875;1337
 68.938;1345
 69.000;1401
 69.063;1423
 69.125;1435
 69.188;1494
 69.250;1464
 69.313;1450
 69.375;1406
 69.438;1506
 69.500;1520
 69.563;1550
 69.625;1479
 69.688;1481
 69.750;1525
 69.813;1696
 69.875;1914
 69.938;2194
 70.000;2329
 70.063;2353
 70.125;2358
 70.188;2351
 70.250;2348
 70.313;2292
 70.375;2111
 70.438;1860
 70.500;1589
 70.563;1459
 70.625;1459
 70.688;1450
 70.750;1445
 70.813;1489
 70.875;1459
 70.938;1389
 71.000;1386
 71.063;1406
 71.125;1428
 71.188;1457
 71.250;1462
 71.313;1435
 71.375;1418
 71.438;1374
 71.500;1374
 71.563;1403
 71.625;1672
 71.688;1706
 71.750;1760
 71.813;1696
 71.875;1669
 71.938;1618
 72.000;1523
 72.063;1467
 72.125;1452
 72.188;1435
 72.250;1423
 72.313;1452
 72.375;1457
 72.438;1506
 72.500;1545
 72.563;1555
 72.625;1501
 72.688;1469
 72.750;1413
 72.813;1481
 72.875;1538
 72.938;1584
 73.000;1520
 73.063;1477
 73.125;1472
 73.188;1396
 73.250;1359
 73.313;1335
 73.375;1318
 73.438;1328
 73.500;1394
 73.563;1535
 73.625;1635
 73.688;1643
 73.750;1577
 73.813;1616
 73.875;1599
 73.938;1445
 74.000;1447
 74.063;1518
 74.125;1567
 74.188;1542
 74.250;1496
 74.313;1496
 74.375;1428
 74.438;1445
 74.500;1474
 74.563;1589
 74.625;1623
 74.688;1706
 74.750;1794
 74.813;1811
 74.875;1818
 74.938;1760
 75.000;1735
 75.063;1582
 75.125;1479
 75.188;1457
 75.250;1450
 75.313;1450
 75.375;1445
 75.438;1462
 75.500;1518
 75.563;1618
 75.625;1652
 75.688;1679
 75.750;1738
 75.813;1689
 75.875;1660
 75.938;1555
 76.000;1601
 76.063;1542
 76.125;1499
 76.188;1496
 76.250;1523
 76.313;1682
 76.375;1931
 76.438;2229
 76.500;2285
 76.563;2316
 76.625;2268
 76.688;2243
 76.750;2199
 76.813;1999
 76.875;1770
 76.938;1633
 77.000;1801
 77.063;1979
 77.125;2038
 77.188;2026
 77.250;1960
 77.313;1943
 77.375;1806
 77.438;1650
 77.500;1701
 77.563;1848
 77.625;1896
 77.688;1889
 77.750;1875
 77.813;1853
 77.875;1777
 77.938;1728
 78.000;1757
 78.063;1901
 78.125;1955
 78.188;1950
 78.250;1875
 78.313;1855
 78.375;1784
 78.438;1813
 78.500;1738
 78.563;1787
 78.625;1706
 78.688;1708
 78.750;1667
 78.813;1657
 78.875;1628
 78.938;1623
 79.000;1625
 79.063;1621
 79.125;1613
 79.188;1818
 79.250;1857
 79.313;1835
 79.375;1875
 79.438;1774
 79.500;1748
 79.563;1711
 79.625;1662
 79.688;1650
 79.750;1650
 79.813;1625
 79.875;1647
 79.938;1672
 80.000;1672
 80.063;1662
 80.125;1657
 80.188;1616
 80.250;1599
 80.313;1579
 80.375;1582
 80.438;1586
 80.500;1604
 80.563;1599
 80.625;1604
 80.688;1599
 80.750;1591
 80.813;1625
 80.875;1630
 80.938;1660
 81.000;1767
 81.063;2019
 81.125;2050
 81.188;2021
 81.250;1955
 81.313;1950
 81.375;1967
 81.438;1787
 81.500;1704
 81.563;1672
 81.625;1777
 81.688;1752
 81.750;1799
 81.813;1770
 81.875;1760
 81.938;1733
 82.000;1682
 82.063;1674
 82.125;1667
 82.188;1752
 82.250;1791
 82.313;1794
 82.375;1835
 82.438;1791
 82.500;1757
 82.563;1694
 82.625;1660
 82.688;1630
 82.750;1621
 82.813;1669
 82.875;1716
 82.938;1755
 83.000;1791
 83.063;1774
 83.125;1777
 83.188;1843
 83.250;1826
 83.313;1857
 83.375;1767
 83.438;2006
 83.500;2026
 83.563;2077
 83.625;1997
 83.688;1962
 83.750;1884
 83.813;1708
 83.875;1667
 83.938;1875
 84.000;2148
 84.063;2192
 84.125;2214
 84.188;2150
 84.250;2126
 84.313;2023
 84.375;1811
 84.438;1796
 84.500;1750
 84.563;1762
 84.625;1699
 84.688;1684
 84.750;1687
 84.813;1723
 84.875;1772
 84.938;1772
 85.000;1816
 85.063;1757
 85.125;1716
 85.188;1706
 85.250;1645
 85.313;1647
 85.375;1647
 85.438;1608
 85.500;1601
 85.563;1730
 85.625;2033
 85.688;2189
 85.750;2202
 85.813;2175
 85.875;2158
 85.938;2033
 86.000;1857
 86.063;1811
 86.125;1816
 86.188;1743
 86.250;1679
 86.313;1704
 86.375;1745
 86.438;1828
 86.500;1865
 86.563;1879
 86.625;1882
 86.688;1840
 86.750;1757
 86.813;1779
 86.875;1833
 86.938;1887
 87.000;1848
 87.063;1799
 87.125;1772
 87.188;1657
 87.250;1623
 87.313;1645
 87.375;1660
 87.438;1647
 87.500;1621
 87.563;1645
 87.625;1662
 87.688;1691
 87.750;1706
 87.813;1684
 87.875;1660
 87.938;1655
 88.000;1716
 88.063;1855
 88.125;1933
 88.188;1901
 88.250;1838
 88.313;1813
 88.375;1735
 88.438;1735
 88.500;1733
 88.563;1765
 88.625;1708
 88.688;1728
 88.750;1916
 88.813;1977
 88.875;1997
 88.938;1936
 89.000;1914
 89.063;1838
 89.125;1748
 89.188;1645
 89.250;1628
 89.313;1667
 89.375;1684
 89.438;1662
 89.500;1738
 89.563;1853
 89.625;1901
 89.688;1892
 89.750;1828
 89.813;1818
 89.875;1796
 89.938;1826
 90.000;1770
 90.063;1738
 90.125;1723
 90.188;1711
 90.250;1735
 90.313;1826
 90.375;2038
 90.438;2290
 90.500;2343
 90.563;2358
 90.625;2351
 90.688;2343
 90.750;2331
 90.813;2209
 90.875;1972
 90.938;1735
 91.000;1784
 91.063;1982
 91.125;2033
 91.188;2043
 91.250;1972
 91.313;1945
 91.375;1831
 91.438;1760
 91.500;1726
 91.563;1743
 91.625;1777
 91.688;1831
 91.750;1857
 91.813;1813
 91.875;1765
 91.938;1760
 92.000;1804
 92.063;1911
 92.125;1965
 92.188;1999
 92.250;1894
 92.313;1914
 92.375;1804
 92.438;1821
 92.500;1762
 92.563;1811
 92.625;1831
 92.688;1853
 92.750;1870
 92.813;1862
 92.875;1835
 92.938;1826
 93.000;1806
 93.063;1757
 93.125;1718
 93.188;1684
 93.250;1689
 93.313;1684
 93.375;1691
 93.438;1708
 93.500;1708
 93.563;1704
 93.625;1679
 93.688;1647
 93.750;1635
 93.813;1613
 93.875;1647
 93.938;1672
 94.000;1650
 94.063;1689
 94.125;1633
 94.188;1645
 94.250;1621
 94.313;1630
 94.375;1650
 94.438;1669
 94.500;1701
 94.563;1711
 94.625;1723
 94.688;1708
 94.750;1674
 94.813;1699
 94.875;1708
 94.938;1752
 95.000;1972
 95.063;2121
 95.125;2160
 95.188;2128
 95.250;2109
 95.313;2089
 95.375;2016
 95.438;1811
 95.500;1701
 95.563;1669
 95.625;1762
 95.688;1809
 95.750;1843
 95.813;1799
 95.875;1811
 95.938;1774
 96.000;1706
 96.063;1672
 96.125;1689
 96.188;1713
 96.250;1899
 96.313;1914
 96.375;1931
 96.438;1896
 96.500;1855
 96.563;1733
 96.625;1726
 96.688;1699
 96.750;1718
 96.813;1708
 96.875;1752
 96.938;1767
 97.000;1733
 97.063;1728
 97.125;1706
 97.188;1682
 97.250;1733
 97.313;1748
 97.375;1848
 97.438;2121
 97.500;2224
 97.563;2221
 97.625;2197
 97.688;2187
 97.750;2136
 97.813;1940
 97.875;1757
 97.938;1718
 98.000;1953
 98.063;1975
 98.125;2011
 98.188;1931
 98.250;1914
 98.313;1862
 98.375;1796
 98.438;1860
 98.500;1845
 98.563;1882
 98.625;1865
 98.688;1811
 98.750;1796
 98.813;1804
 98.875;1938
 98.938;1977
 99.000;1916
 99.063;1872
 99.125;1828
 99.188;1782
 99.250;1791
 99.313;1762
 99.375;1765
 99.438;1730
 99.500;1782
 99.563;1945
 99.625;2250
 99.688;2326
 99.750;2348
 99.813;2346
 99.875;2329
 99.938;2316
100.000;2182
100.063;2038
100.125;1994
100.188;1977
100.250;1940
100.313;1918
100.375;1921
100.438;2045
100.500;2172
100.563;2155
100.625;2155
100.688;2126
100.750;2033
100.813;1965
100.875;2080
100.938;2124
101.000;2084
101.063;2038
101.125;2019
101.188;1845
101.250;1770
101.313;1760
101.375;1767
101.438;1762
101.500;1743
101.563;1738
101.625;1791
101.688;1782
101.750;1899
101.813;1889
101.875;1816
101.938;1865
102.000;1899
102.063;2050
102.125;2075
102.188;2114
102.250;2060
102.313;2006
102.375;1904
102.438;1967
102.500;1909
102.563;1975
102.625;1948
102.688;1948
102.750;1872
102.813;1850
102.875;1872
102.938;1826
103.000;1796
103.063;1779
103.125;1787
103.188;1772
103.250;1760
103.313;1774
103.375;1760
103.438;1740
103.500;1809
103.563;2048
103.625;2099
103.688;2084
103.750;2023
103.813;2019
103.875;1884
103.938;1796
104.000;1760
104.063;1770
104.125;1728
104.188;1733
104.250;1779
104.313;1784
104.375;1857
104.438;2104
104.500;2148
104.563;2233
104.625;2202
104.688;2128
104.750;2092
104.813;1938
104.875;1791
104.938;1735
105.000;1689
105.063;1794
105.125;1821
105.188;1833
105.250;1833
105.313;1857
105.375;1840
105.438;1884
105.500;1911
105.563;1987
105.625;1953
105.688;1865
105.750;1850
105.813;1767
105.875;1745
105.938;1765
106.000;1801
106.063;1828
106.125;1816
106.188;1816
106.250;1765
106.313;1721
106.375;1691
106.438;1677
106.500;1716
106.563;1791
106.625;1838
106.688;1840
106.750;1840
106.813;1804
106.875;1806
106.938;1840
107.000;1848
107.063;1862
107.125;1818
107.188;1791
107.250;1721
107.313;1721
107.375;1735
107.438;1782
107.500;1801
107.563;1845
107.625;1804
107.688;1770
107.750;1738
107.813;1669
107.875;1660
107.938;1665
108.000;1650
108.063;1647
108.125;1645
108.188;1650
108.250;1657
108.313;1689
108.375;1733
108.438;1743
108.500;1757
108.563;1726
108.625;1672
108.688;1652
108.750;1633
108.813;1643
108.875;1718
108.938;1728
109.000;1733
109.063;1882
109.125;1904
109.188;1901
109.250;1877
109.313;1901
109.375;1843
109.438;1770
109.500;1733
109.563;1689
109.625;1716
109.688;1748
109.750;1770
109.813;1755
109.875;1735
109.938;1711
110.000;1691
110.063;1689
110.125;1674
110.188;1682
110.250;1784
110.313;1826
110.375;1801
110.438;1755
110.500;1735
110.563;1711
110.625;1679
110.688;1662
110.750;1650
110.813;1669
110.875;1704
110.938;1691
111.000;1694
111.063;1677
111.125;1674
111.188;1694
111.250;1718
111.313;1728
111.375;1733
111.438;1962
111.500;2016
111.563;2077
111.625;2043
111.688;1984
111.750;1931
111.813;1777
111.875;1682
111.938;1704
112.000;1987
112.063;2043
112.125;2089
112.188;2019
112.250;2006
112.313;1936
112.375;1777
112.438;1750
112.500;1750
112.563;1787
112.625;1743
112.688;1728
112.750;1726
112.813;1728
112.875;1782
112.938;1813
113.000;1791
113.063;1752
113.125;1730
113.188;1677
113.250;1679
113.313;1657
113.375;1679
113.438;1650
113.500;1699
113.563;1706
113.625;2058
113.688;2214
113.750;2258
113.813;2272
113.875;2233
113.938;2175
114.000;1906
114.063;1918
114.125;1843
114.188;1828
114.250;1782
114.313;1770
114.375;1777
114.438;1931
114.500;2014
114.563;2077
114.625;2041
114.688;1992
114.750;1943
114.813;1862
114.875;1977
114.938;2031
115.000;2023
115.063;1979
115.125;1945
115.188;1748
115.250;1694
115.313;1623
115.375;1606
115.438;1613
115.500;1623
115.563;1635
115.625;1699
115.688;1765
115.750;1904
115.813;1809
115.875;1777
115.938;1726
116.000;1750
116.063;1970
116.125;2001
116.188;2021
116.250;1950
116.313;1940
116.375;1838
116.438;1806
116.500;1796
116.563;1821
116.625;1794
116.688;1784
116.750;1735
116.813;1662
116.875;1704
116.938;1684
117.000;1643
117.063;1652
117.125;1606
117.188;1638
117.250;1625
117.313;1633
117.375;1635
117.438;1599
117.500;1721
117.563;1909
117.625;1948
117.688;1970
117.750;1911
117.813;1892
117.875;1789
117.938;1726
118.000;1689
118.063;1701
118.125;1657
118.188;1630
118.250;1618
118.313;1638
118.375;1745
118.438;2070
118.500;2150
118.563;2197
118.625;2158
118.688;2114
118.750;2084
118.813;1916
118.875;1716
118.938;1611
119.000;1586
119.063;1704
119.125;1718
119.188;1752
119.250;1711
119.313;1718
119.375;1726
119.438;1811
119.500;1843
119.563;1877
119.625;1872
119.688;1799
119.750;1779
119.813;1669
119.875;1616
119.938;1704
120.000;1733
120.063;1774
120.125;1738
120.188;1721
120.250;1701
120.313;1647
120.375;1625
120.438;1577
120.500;1601
120.563;1752
120.625;1789
120.688;1804
120.750;1762
120.813;1745
120.875;1711
120.938;1701
121.000;1774
121.063;1809
121.125;1728
121.188;1718
121.250;1713
121.313;1655
121.375;1604
121.438;1701
121.500;1713
121.563;1696
121.625;1674
121.688;1638
121.750;1577
121.813;1538
121.875;1545
121.938;1533
122.000;1525
122.063;1513
122.125;1508
122.188;1506
122.250;1513
122.313;1533
122.375;1557
122.438;1577
122.500;1577
122.563;1557
122.625;1533
122.688;1486
122.750;1474
122.813;1469
122.875;1491
122.938;1513
123.000;1518
123.063;1667
123.125;1701
123.188;1708
123.250;1701
123.313;1711
123.375;1738
123.438;1650
123.500;1628
123.563;1589
123.625;1562
123.688;1550
123.750;1545
123.813;1518
123.875;1503
123.938;1494
124.000;1477
124.063;1501
124.125;1503
124.188;1550
124.250;1606
124.313;1606
124.375;1645
124.438;1569
124.500;1530
124.563;1508
124.625;1450
124.688;1430
124.750;1433
124.813;1428
124.875;1442
124.938;1472
125.000;1491
125.063;1472
125.125;1445
125.188;1423
125.250;1445
125.313;1457
125.375;1467
125.438;1662
125.500;1755
125.563;1826
125.625;1782
125.688;1726
125.750;1689
125.813;1547
125.875;1467
125.938;1550
126.000;1889
126.063;1958
126.125;2036
126.188;1967
126.250;1931
126.313;1887
126.375;1708
126.438;1562
126.500;1525
126.563;1582
126.625;1547
126.688;1503
126.750;1489
126.813;1455
126.875;1579
126.938;1574
127.000;1589
127.063;1530
127.125;1518
127.188;1445
127.250;1420
127.313;1416
127.375;1440
127.438;1403
127.500;1396
127.563;1420
127.625;1625
127.688;1884
127.750;1945
127.813;1938
127.875;1911
127.938;1828
128.000;1718
128.063;1591
128.125;1530
128.188;1538
128.250;1484
128.313;1455
128.375;1467
128.438;1599
128.500;1694
128.563;1723
128.625;1723
128.688;1652
128.750;1633
128.813;1552
128.875;1669
128.938;1696
129.000;1713
129.063;1633
129.125;1621
129.188;1508
129.250;1381
129.313;1340
129.375;1330
129.438;1333
129.500;1328
129.563;1337
129.625;1391
129.688;1406
129.750;1535
129.813;1484
129.875;1467
129.938;1469
130.000;1455
130.063;1721
130.125;1735
130.188;1787
130.250;1721
130.313;1669
130.375;1608
130.438;1545
130.500;1481
130.563;1618
130.625;1655
130.688;1589
130.750;1445
130.813;1433
130.875;1416
130.938;1389
131.000;1372
131.063;1411
131.125;1408
131.188;1433
131.250;1396
131.313;1381
131.375;1374
131.438;1369
131.500;1447
131.563;1728
131.625;1784
131.688;1818
131.750;1757
131.813;1723
131.875;1621
131.938;1511
132.000;1433
132.063;1442
132.125;1413
132.188;1445
132.250;1464
132.313;1489
132.375;1535
132.438;1640
132.500;1738
132.563;1806
132.625;1791
132.688;1733
132.750;1728
132.813;1611
132.875;1508
132.938;1477
133.000;1398
133.063;1440
133.125;1447
133.188;1474
133.250;1435
133.313;1425
133.375;1406
133.438;1533
133.500;1511
133.563;1489
133.625;1542
133.688;1474
133.750;1459
133.813;1406
133.875;1352
133.938;1379
134.000;1442
134.063;1467
134.125;1452
134.188;1433
134.250;1386
134.313;1347
134.375;1328
134.438;1342
134.500;1352
134.563;1508
134.625;1547
134.688;1557
134.750;1506
134.813;1474
134.875;1413
134.938;1445
135.000;1530
135.063;1577
135.125;1511
135.188;1481
135.250;1496
135.313;1423
135.375;1403
135.438;1394
135.500;1452
135.563;1477
135.625;1469
135.688;1445
135.750;1413
135.813;1394
135.875;1357
135.938;1350
136.000;1345
136.063;1345
136.125;1347
136.188;1345
136.250;1359
136.313;1362
136.375;1347
136.438;1337
136.500;1323
136.563;1318
136.625;1320
136.688;1320
136.750;1313
136.813;1318
136.875;1313
136.938;1311
137.000;1323
137.063;1384
137.125;1403
137.188;1445
137.250;1437
137.313;1430
137.375;1567
137.438;1596
137.500;1699
137.563;1706
137.625;1726
137.688;1660
137.750;1640
137.813;1557
137.875;1538
137.938;1552
138.000;1538
138.063;1477
138.125;1455
138.188;1401
138.250;1376
138.313;1379
138.375;1367
138.438;1367
138.500;1352
138.563;1342
138.625;1323
138.688;1318
138.750;1320
138.813;1313
138.875;1328
138.938;1325
139.000;1333
139.063;1325
139.125;1318
139.188;1313
139.250;1313
139.313;1306
139.375;1313
139.438;1435
139.500;1560
139.563;1625
139.625;1591
139.688;1533
139.750;1518
139.813;1398
139.875;1330
139.938;1411
140.000;1735
140.063;1848
140.125;1916
140.188;1870
140.250;1818
140.313;1794
140.375;1623
140.438;1428
140.500;1364
140.563;1350
140.625;1333
140.688;1335
140.750;1340
140.813;1340
140.875;1328
140.938;1320
141.000;1308
141.063;1293
141.125;1296
141.188;1289
141.250;1291
141.313;1286
141.375;1291
141.438;1279
141.500;1279
141.563;1379
141.625;1354
141.688;1530
141.750;1591
141.813;1577
141.875;1638
141.938;1599
142.000;1577
142.063;1403
142.125;1335
142.188;1335
142.250;1313
142.313;1301
142.375;1303
142.438;1379
142.500;1459
142.563;1496
142.625;1484
142.688;1440
142.750;1408
142.813;1345
142.875;1391
142.938;1450
143.000;1462
143.063;1511
143.125;1545
143.188;1530
143.250;1469
143.313;1455
143.375;1354
143.438;1303
143.500;1293
143.563;1281
143.625;1308
143.688;1323
143.750;1342
143.813;1362
143.875;1354
143.938;1325
144.000;1320
144.063;1428
144.125;1435
144.188;1486
144.250;1430
144.313;1396
144.375;1374
144.438;1335
144.500;1352
144.563;1362
144.625;1333
144.688;1333
144.750;1342
144.813;1328
144.875;1330
144.938;1303
145.000;1281
145.063;1267
145.125;1271
145.188;1264
145.250;1267
145.313;1276
145.375;1271
145.438;1271
145.500;1279
145.563;1296
145.625;1315
145.688;1318
145.750;1308
145.813;1320
145.875;1303
145.938;1291
146.000;1281
146.063;1286
146.125;1298
146.188;1313
146.250;1315
146.313;1337
146.375;1347
146.438;1437
146.500;1542
146.563;1599
146.625;1589
146.688;1520
146.750;1508
146.813;1406
146.875;1333
146.938;1308
147.000;1293
147.063;1318
147.125;1328
147.188;1347
147.250;1318
147.313;1311
147.375;1293
147.438;1286
147.500;1313
147.563;1320
147.625;1318
147.688;1328
147.750;1301
147.813;1308
147.875;1286
147.938;1298
148.000;1313
148.063;1311
148.125;1303
148.188;1301
148.250;1298
148.313;1306
148.375;1284
148.438;1284
148.500;1301
148.563;1313
148.625;1318
148.688;1340
148.750;1315
148.813;1308
148.875;1308
148.938;1301
149.000;1333
149.063;1347
149.125;1328
149.188;1311
149.250;1318
149.313;1296
149.375;1291
149.438;1279
149.500;1296
149.563;1291
149.625;1289
149.688;1352
149.750;1362
149.813;1369
149.875;1333
149.938;1342
150.000;1433
150.063;1691
150.125;2033
150.188;2082
150.250;2128
150.313;2060
150.375;2028
150.438;1953
150.500;1757
150.563;1518
150.625;1350
150.688;1311
150.750;1298
150.813;1306
150.875;1311
150.938;1313
151.000;1315
151.063;1352
151.125;1364
151.188;1384
151.250;1367
151.313;1354
151.375;1337
151.438;1323
151.500;1359
151.563;1325
151.625;1396
151.688;1359
151.750;1347
151.813;1337
151.875;1330
151.938;1335
152.000;1347
152.063;1330
152.125;1320
152.188;1311
152.250;1306
152.313;1293
152.375;1303
152.438;1303
152.500;1291
152.563;1298
152.625;1293
152.688;1281
152.750;1276
152.813;1276
152.875;1279
152.938;1279
153.000;1271
153.063;1267
153.125;1271
153.188;1267
153.250;1279
153.313;1269
153.375;1281
153.438;1293
153.500;1337
153.563;1376
153.625;1364
153.688;1333
153.750;1330
153.813;1303
153.875;1301
153.938;1357
154.000;1650
154.063;1794
154.125;1862
154.188;1828
154.250;1772
154.313;1750
154.375;1586
154.438;1394
154.500;1311
154.563;1291
154.625;1289
154.688;1308
154.750;1513
154.813;1652
154.875;1721
154.938;1687
155.000;1628
155.063;1604
155.125;1455
155.188;1337
155.250;1306
155.313;1325
155.375;1289
155.438;1286
155.500;1284
155.563;1276
155.625;1411
155.688;1564
155.750;1599
155.813;1635
155.875;1591
155.938;1547
156.000;1433
156.063;1330
156.125;1291
156.188;1296
156.250;1296
156.313;1284
156.375;1289
156.438;1301
156.500;1323
156.563;1325
156.625;1320
156.688;1311
156.750;1296
156.813;1279
156.875;1296
156.938;1330
157.000;1511
157.063;1718
157.125;1777
157.188;1772
157.250;1706
157.313;1689
157.375;1552
157.438;1364
157.500;1274
157.563;1247
157.625;1257
157.688;1254
157.750;1257
157.813;1257
157.875;1242
157.938;1230
158.000;1230
158.063;1274
158.125;1352
158.188;1386
158.250;1420
158.313;1369
158.375;1345
158.438;1318
158.500;1274
158.563;1264
158.625;1262
158.688;1254
158.750;1259
158.813;1267
158.875;1259
158.938;1262
159.000;1262
159.063;1262
159.125;1257
159.188;1254
159.250;1252
159.313;1247
159.375;1254
159.438;1242
159.500;1262
159.563;1323
159.625;1350
159.688;1364
159.750;1335
159.813;1313
159.875;1286
159.938;1254
160.000;1242
160.063;1245
160.125;1242
160.188;1250
160.250;1245
160.313;1245
160.375;1250
160.438;1315
160.500;1413
160.563;1472
160.625;1462
160.688;1411
160.750;1530
160.813;1572
160.875;1630
160.938;1562
161.000;1523
161.063;1481
161.125;1352
161.188;1301
161.250;1293
161.313;1311
161.375;1291
161.438;1269
161.500;1279
161.563;1269
161.625;1264
161.688;1269
161.750;1269
161.813;1254
161.875;1245
161.938;1269
162.000;1301
162.063;1318
162.125;1301
162.188;1284
162.250;1274
162.313;1267
162.375;1254
162.438;1247
162.500;1240
162.563;1245
162.625;1242
162.688;1240
162.750;1235
162.813;1242
162.875;1237
162.938;1252
163.000;1250
163.063;1254
163.125;1247
163.188;1242
163.250;1240
163.313;1252
163.375;1323
163.438;1501
163.500;1789
163.563;2092
163.625;2148
163.688;2177
163.750;2114
163.813;2092
163.875;1997
163.938;1796
164.000;1547
164.063;1381
164.125;1591
164.188;1630
164.250;1679
164.313;1606
164.375;1569
164.438;1503
164.500;1342
164.563;1262
164.625;1242
164.688;1232
164.750;1237
164.813;1232
164.875;1232
164.938;1240
165.000;1284
165.063;1550
165.125;1594
165.188;1643
165.250;1569
165.313;1542
165.375;1472
165.438;1328
165.500;1269
165.563;1264
165.625;1254
165.688;1247
165.750;1250
165.813;1245
165.875;1259
165.938;1276
166.000;1281
166.063;1267
166.125;1259
166.188;1267
166.250;1257
166.313;1264
166.375;1259
166.438;1254
166.500;1257
166.563;1247
166.625;1250
166.688;1250
166.750;1254
166.813;1247
166.875;1250
166.938;1245
167.000;1245
167.063;1245
167.125;1247
167.188;1254
167.250;1254
167.313;1247
167.375;1240
167.438;1242
167.500;1254
167.563;1252
167.625;1257
167.688;1242
167.750;1242
167.813;1252
167.875;1245
167.938;1264
168.000;1423
168.063;1557
168.125;1623
168.188;1591
168.250;1533
168.313;1511
168.375;1374
168.438;1271
168.500;1247
168.563;1237
168.625;1232
168.688;1245
168.750;1250
168.813;1262
168.875;1306
168.938;1281
169.000;1276
169.063;1250
169.125;1289
169.188;1354
169.250;1381
169.313;1418
169.375;1391
169.438;1374
169.500;1276
169.563;1247
169.625;1240
169.688;1320
169.750;1352
169.813;1418
169.875;1437
169.938;1442
170.000;1428
170.063;1379
170.125;1359
170.188;1284
170.250;1230
170.313;1225
170.375;1220
170.438;1225
170.500;1240
170.563;1240
170.625;1235
170.688;1235
170.750;1232
170.813;1223
170.875;1225
170.938;1240
171.000;1306
171.063;1467
171.125;1250
171.188;1298
171.250;1235
171.313;1267
171.375;1306
171.438;1345
171.500;1484
171.563;1374
171.625;1362
171.688;1374
171.750;1362
171.813;1362
171.875;1364
171.938;1362
172.000;1362
172.063;1367
172.125;1372
172.188;1376
172.250;1367
172.313;1362
172.375;1359
172.438;1350
172.500;1350
172.563;1352
172.625;1359
172.688;1354
172.750;1345
172.813;1352
172.875;1354
172.938;1345
173.000;1345
173.063;1347
173.125;1342
173.188;1352
173.250;1330
173.313;1320
173.375;1340
173.438;1335
173.500;1335
173.563;1333
173.625;1342
173.688;1354
173.750;1342
173.813;1340
173.875;1330
173.938;1330
174.000;1330
174.063;1330
174.125;1333
174.188;1337
174.250;1330
174.313;1333
174.375;1330
174.438;1340
174.500;1396
174.563;1389
174.625;1403
174.688;1389
174.750;1364
174.813;1337
174.875;1328
174.938;1340
175.000;1364
175.063;1384
175.125;1340
175.188;1354
175.250;1330
175.313;1325
175.375;1315
175.438;1330
175.500;1330
175.563;1320
175.625;1325
175.688;1330
175.750;1323
175.813;1328
175.875;1333
175.938;1325
176.000;1335
176.063;1345
176.125;1354
176.188;1357
176.250;1350
176.313;1347
176.375;1357
176.438;1359
176.500;1352
176.563;1357
176.625;1357
176.688;1359
176.750;1362
176.813;1376
176.875;1547
176.938;1682
177.000;1745
177.063;1713
177.125;1652
177.188;1633
177.250;1486
177.313;1389
177.375;1354
177.438;1359
177.500;1411
177.563;1721
177.625;1772
177.688;1833
177.750;1765
177.813;1726
177.875;1674
177.938;1489
178.000;1379
178.063;1335
178.125;1381
178.188;1413
178.250;1462
178.313;1420
178.375;1384
178.438;1376
178.500;1330
178.563;1318
178.625;1320
178.688;1311
178.750;1311
178.813;1325
178.875;1313
178.938;1318
179.000;1325
179.063;1352
179.125;1350
179.188;1381
179.250;1374
179.313;1359
179.375;1347
179.438;1328
179.500;1328
179.563;1323
179.625;1330
179.688;1328
179.750;1330
179.813;1333
179.875;1325
179.938;1347
180.000;1357
180.063;1359
180.125;1345
180.188;1342
180.250;1325
180.313;1320
180.375;1315
180.438;1315
180.500;1318
180.563;1311
180.625;1318
180.688;1323
180.750;1320
180.813;1318
180.875;1323
180.938;1337
181.000;1330
181.063;1337
181.125;1333
181.188;1337
181.250;1347
181.313;1342
181.375;1345
181.438;1345
181.500;1352
181.563;1342
181.625;1354
181.688;1347
181.750;1364
181.813;1359
181.875;1357
181.938;1354
182.000;1376
182.063;1518
182.125;1552
182.188;1562
182.250;1506
182.313;1494
182.375;1442
182.438;1401
182.500;1357
182.563;1369
182.625;1357
182.688;1347
182.750;1347
182.813;1342
182.875;1340
182.938;1350
183.000;1342
183.063;1330
183.125;1318
183.188;1320
183.250;1328
183.313;1337
183.375;1337
183.438;1330
183.500;1315
183.563;1325
183.625;1318
183.688;1318
183.750;1320
183.813;1328
183.875;1374
183.938;1374
184.000;1386
184.063;1350
184.125;1352
184.188;1328
184.250;1328
184.313;1323
184.375;1323
184.438;1325
184.500;1320
184.563;1320
184.625;1328
184.688;1330
184.750;1325
184.813;1325
184.875;1318
184.938;1313
185.000;1318
185.063;1364
185.125;1364
185.188;1381
185.250;1342
185.313;1340
185.375;1323
185.438;1325
185.500;1325
185.563;1318
185.625;1320
185.688;1308
185.750;1318
185.813;1311
185.875;1313
185.938;1325
186.000;1325
186.063;1328
186.125;1345
186.188;1335
186.250;1340
186.313;1340
186.375;1333
186.438;1328
186.500;1340
186.563;1340
186.625;1335
186.688;1333
186.750;1340
186.813;1335
186.875;1345
186.938;1340
187.000;1340
187.063;1337
187.125;1337
187.188;1335
187.250;1328
187.313;1333
187.375;1337
187.438;1333
187.500;1335
187.563;1342
187.625;1340
187.688;1323
187.750;1333
187.813;1342
187.875;1337
187.938;1357
188.000;1384
188.063;1406
188.125;1396
188.188;1374
188.250;1364
188.313;1345
188.375;1330
188.438;1323
188.500;1337
188.563;1335
188.625;1325
188.688;1318
188.750;1323
188.813;1315
188.875;1311
188.938;1323
189.000;1347
189.063;1342
189.125;1352
189.188;1347
189.250;1340
189.313;1335
189.375;1328
189.438;1330
189.500;1323
189.563;1325
189.625;1323
189.688;1325
189.750;1315
189.813;1323
189.875;1328
189.938;1328
190.000;1337
190.063;1323
190.125;1320
190.188;1333
190.250;1318
190.313;1328
190.375;1328
190.438;1313
190.500;1315
190.563;1313
190.625;1303
190.688;1308
190.750;1306
190.813;1311
190.875;1315
190.938;1330
191.000;1340
191.063;1350
191.125;1340
191.188;1335
191.250;1337
191.313;1337
191.375;1342
191.438;1347
191.500;1342
191.563;1386
191.625;1416
191.688;1459
191.750;1425
191.813;1398
191.875;1386
191.938;1376
192.000;1357
192.063;1367
192.125;1357
192.188;1345
192.250;1340
192.313;1342
192.375;1337
192.438;1333
192.500;1333
192.563;1328
192.625;1325
192.688;1323
192.750;1320
192.813;1325
192.875;1315
192.938;1320
193.000;1318
193.063;1318
193.125;1320
193.188;1325
193.250;1325
193.313;1325
193.375;1323
193.438;1320
193.500;1320
193.563;1315
193.625;1311
193.688;1318
193.750;1318
193.813;1325
193.875;1318
193.938;1311
194.000;1320
194.063;1323
194.125;1318
194.188;1323
194.250;1315
194.313;1315
194.375;1313
194.438;1318
194.500;1315
194.563;1315
194.625;1323
194.688;1318
194.750;1306
194.813;1315
194.875;1313
194.938;1318
195.000;1325
195.063;1315
195.125;1318
195.188;1318
195.250;1318
195.313;1320
195.375;1311
195.438;1308
195.500;1311
195.563;1320
195.625;1323
195.688;1315
195.750;1328
195.813;1333
195.875;1328
195.938;1330
196.000;1335
196.063;1416
196.125;1425
196.188;1452
196.250;1411
196.313;1408
196.375;1416
196.438;1403
196.500;1408
196.563;1381
196.625;1374
196.688;1372
196.750;1369
196.813;1364
196.875;1352
196.938;1342
197.000;1357
197.063;1352
197.125;1352
197.188;1340
197.250;1340
197.313;1335
197.375;1330
197.438;1320
197.500;1325
197.563;1323
197.625;1318
197.688;1325
197.750;1328
197.813;1335
197.875;1340
197.938;1325
198.000;1323
198.063;1330
198.125;1318
198.188;1323
198.250;1320
198.313;1325
198.375;1323
198.438;1315
198.500;1320
198.563;1318
198.625;1318
198.688;1333
198.750;1330
198.813;1340
198.875;1347
198.938;1352
199.000;1508
199.063;1611
199.125;1682
199.188;1635
199.250;1579
199.313;1555
199.375;1428
199.438;1354
199.500;1337
199.563;1335
199.625;1328
199.688;1342
199.750;1333
199.813;1328
199.875;1313
199.938;1313
200.000;1323
200.063;1335
200.125;1335
200.188;1330
200.250;1325
200.313;1323
200.375;1306
200.438;1315
200.500;1303
200.563;1311
200.625;1306
200.688;1311
200.750;1311
200.813;1315
200.875;1301
200.938;1308
201.000;1320
201.063;1323
201.125;1340
201.188;1333
201.250;1328
201.313;1328
201.375;1337
201.438;1350
201.500;1345
201.563;1342
201.625;1345
201.688;1345
201.750;1357
201.813;1350
201.875;1350
201.938;1354
202.000;1354
202.063;1347
202.125;1342
202.188;1345
202.250;1337
202.313;1328
202.375;1333
202.438;1330
202.500;1333
202.563;1340
202.625;1337
202.688;1325
202.750;1318
202.813;1323
202.875;1318
202.938;1325
203.000;1320
203.063;1325
203.125;1315
203.188;1328
203.250;1330
203.313;1323
203.375;1320
203.438;1325
203.500;1335
203.563;1337
203.625;1335
203.688;1335
203.750;1333
203.813;1330
203.875;1318
203.938;1325
204.000;1323
204.063;1320
204.125;1320
204.188;1320
204.250;1325
204.313;1328
204.375;1315
204.438;1320
204.500;1320
204.563;1315
204.625;1306
204.688;1315
204.750;1318
204.813;1318
204.875;1313
204.938;1318
205.000;1315
205.063;1323
205.125;1313
205.188;1311
205.250;1325
205.313;1325
205.375;1318
205.438;1313
205.500;1308
205.563;1306
205.625;1311
205.688;1296
205.750;1296
205.813;1303
205.875;1306
205.938;1308
206.000;1306
206.063;1315
206.125;1311
206.188;1313
206.250;1320
206.313;1323
206.375;1325
206.438;1328
206.500;1345
206.563;1337
206.625;1335
206.688;1325
206.750;1342
206.813;1337
206.875;1345
206.938;1350
207.000;1345
207.063;1340
207.125;1337
207.188;1335
207.250;1340
207.313;1340
207.375;1337
207.438;1330
207.500;1320
207.563;1320
207.625;1313
207.688;1315
207.750;1308
207.813;1315
207.875;1306
207.938;1306
208.000;1301
208.063;1298
208.125;1303
208.188;1306
208.250;1298
208.313;1296
208.375;1303
208.438;1291
208.500;1303
208.563;1301
208.625;1303
208.688;1303
208.750;1303
208.813;1308
208.875;1303
208.938;1311
209.000;1313
209.063;1318
209.125;1318
209.188;1320
209.250;1320
209.313;1320
209.375;1323
209.438;1320
209.500;1328
209.563;1337
209.625;1342
209.688;1357
209.750;1350
209.813;1335
209.875;1340
209.938;1342
210.000;1354
210.063;1479
210.125;1545
210.188;1606
210.250;1555
210.313;1511
210.375;1486
210.438;1391
210.500;1357
210.563;1342
210.625;1333
210.688;1342
210.750;1342
210.813;1340
210.875;1340
210.938;1325
211.000;1320
211.063;1311
211.125;1315
211.188;1318
211.250;1308
211.313;1318
211.375;1328
211.438;1318
211.500;1323
211.563;1318
211.625;1330
211.688;1330
211.750;1337
211.813;1328
211.875;1323
211.938;1333
212.000;1333
212.063;1335
212.125;1340
212.188;1333
212.250;1333
212.313;1337
212.375;1342
212.438;1345
212.500;1337
212.563;1337
212.625;1333
212.688;1333
212.750;1337
212.813;1335
212.875;1330
212.938;1330
213.000;1335
213.063;1335
213.125;1342
213.188;1337
213.250;1328
213.313;1323
213.375;1325
213.438;1315
213.500;1311
213.563;1311
213.625;1311
213.688;1308
213.750;1306
213.813;1301
213.875;1308
213.938;1301
214.000;1301
214.063;1301
214.125;1298
214.188;1301
214.250;1301
214.313;1306
214.375;1308
214.438;1311
214.500;1330
214.563;1328
214.625;1328
214.688;1328
214.750;1342
214.813;1340
214.875;1333
214.938;1340
215.000;1345
215.063;1335
215.125;1340
215.188;1340
215.250;1345
215.313;1340
215.375;1347
215.438;1340
215.500;1335
215.563;1337
215.625;1333
215.688;1335
215.750;1325
215.813;1323
215.875;1323
215.938;1345
216.000;1359
216.063;1367
216.125;1357
216.188;1350
216.250;1340
216.313;1328
216.375;1311
216.438;1308
216.500;1311
216.563;1308
216.625;1323
216.688;1315
216.750;1318
216.813;1315
216.875;1315
216.938;1315
217.000;1320
217.063;1311
217.125;1318
217.188;1328
217.250;1325
217.313;1328
217.375;1330
217.438;1328
217.500;1330
217.563;1342
217.625;1342
217.688;1337
217.750;1342
217.813;1352
217.875;1354
217.938;1342
218.000;1342
218.063;1347
218.125;1340
218.188;1345
218.250;1337
218.313;1335
218.375;1330
218.438;1328
218.500;1333
218.563;1340
218.625;1333
218.688;1328
218.750;1311
218.813;1306
218.875;1308
218.938;1298
219.000;1298
219.063;1296
219.125;1303
219.188;1303
219.250;1308
219.313;1289
219.375;1303
219.438;1303
219.500;1289
219.563;1306
219.625;1308
219.688;1308
219.750;1308
219.813;1315
219.875;1311
219.938;1318
220.000;1315
220.063;1318
220.125;1318
220.188;1325
220.250;1315
220.313;1320
220.375;1320
220.438;1328
220.500;1325
220.563;1323
220.625;1337
220.688;1330
220.750;1323
220.813;1325
220.875;1325
220.938;1318
221.000;1325
221.063;1340
221.125;1564
221.188;1652
221.250;1718
221.313;1667
221.375;1611
221.438;1582
221.500;1425
221.563;1330
221.625;1311
221.688;1306
221.750;1308
221.813;1313
221.875;1313
221.938;1313
222.000;1318
222.063;1313
222.125;1318
222.188;1330
222.250;1333
222.313;1337
222.375;1325
222.438;1333
222.500;1337
222.563;1335
222.625;1330
222.688;1323
222.750;1320
222.813;1330
222.875;1320
222.938;1328
223.000;1323
223.063;1320
223.125;1323
223.188;1318
223.250;1325
223.313;1315
223.375;1318
223.438;1318
223.500;1311
223.563;1313
223.625;1308
223.688;1306
223.750;1303
223.813;1313
223.875;1313
223.938;1311
224.000;1315
224.063;1325
224.125;1328
224.188;1330
224.250;1320
224.313;1313
224.375;1318
224.438;1311
224.500;1306
224.563;1289
224.625;1301
224.688;1311
224.750;1306
224.813;1306
224.875;1306
224.938;1333
225.000;1315
225.063;1342
225.125;1318
225.188;1325
225.250;1320
225.313;1311
225.375;1308
225.438;1308
225.500;1315
225.563;1308
225.625;1308
225.688;1308
225.750;1303
225.813;1303
225.875;1308
225.938;1301
226.000;1306
226.063;1303
226.125;1306
226.188;1301
226.250;1291
226.313;1298
226.375;1291
226.438;1293
226.500;1298
226.563;1298
226.625;1298
226.688;1313
226.750;1311
226.813;1311
226.875;1315
226.938;1318
227.000;1330
227.063;1323
227.125;1330
227.188;1330
227.250;1335
227.313;1328
227.375;1335
227.438;1333
227.500;1342
227.563;1330
227.625;1323
227.688;1333
227.750;1337
227.813;1340
227.875;1330
227.938;1333
228.000;1333
228.063;1333
228.125;1337
228.188;1328
228.250;1333
228.313;1325
228.375;1323
228.438;1333
228.500;1323
228.563;1318
228.625;1315
228.688;1320
228.750;1320
228.813;1315
228.875;1308
228.938;1296
229.000;1306
229.063;1298
229.125;1291
229.188;1293
229.250;1293
229.313;1293
229.375;1284
229.438;1291
229.500;1293
229.563;1298
229.625;1298
229.688;1289
229.750;1298
229.813;1293
229.875;1301
229.938;1301
230.000;1315
230.063;1311
230.125;1323
230.188;1328
230.250;1325
230.313;1330
230.375;1323
230.438;1318
230.500;1328
230.563;1330
230.625;1330
230.688;1328
230.750;1320
230.813;1325
230.875;1333
230.938;1323
231.000;1320
231.063;1325
231.125;1330
231.188;1333
231.250;1320
231.313;1318
231.375;1320
231.438;1330
231.500;1330
231.563;1330
231.625;1320
231.688;1335
231.750;1330
231.813;1342
231.875;1352
231.938;1342
232.000;1342
232.063;1345
232.125;1374
232.188;1428
232.250;1452
232.313;1481
232.375;1445
232.438;1416
232.500;1408
232.563;1362
232.625;1352
232.688;1350
232.750;1352
232.813;1354
232.875;1345
232.938;1342
233.000;1340
233.063;1345
233.125;1345
233.188;1342
233.250;1347
233.313;1345
233.375;1335
233.438;1340
233.500;1340
233.563;1340
233.625;1335
233.688;1335
233.750;1337
233.813;1320
233.875;1325
233.938;1325
234.000;1330
234.063;1318
234.125;1318
234.188;1306
234.250;1311
234.313;1301
234.375;1303
234.438;1291
234.500;1293
234.563;1286
234.625;1289
234.688;1293
234.750;1291
234.813;1291
234.875;1303
234.938;1308
235.000;1306
235.063;1306
235.125;1306
235.188;1318
235.250;1320
235.313;1325
235.375;1333
235.438;1328
235.500;1337
235.563;1315
235.625;1318
235.688;1313
235.750;1320
235.813;1320
235.875;1315
235.938;1320
236.000;1325
236.063;1325
236.125;1330
236.188;1325
236.250;1330
236.313;1325
236.375;1313
236.438;1320
236.500;1318
236.563;1320
236.625;1318
236.688;1320
236.750;1313
236.813;1325
236.875;1313
236.938;1318
237.000;1333
237.063;1333
237.125;1335
237.188;1333
237.250;1325
237.313;1335
237.375;1318
237.438;1323
237.500;1325
237.563;1330
237.625;1333
237.688;1330
237.750;1323
237.813;1325
237.875;1325
237.938;1330
238.000;1330
238.063;1330
238.125;1335
238.188;1333
238.250;1335
238.313;1320
238.375;1308
238.438;1303
238.500;1306
238.563;1303
238.625;1303
238.688;1306
238.750;1306
238.813;1303
238.875;1301
238.938;1303
239.000;1301
239.063;1306
239.125;1289
239.188;1289
239.250;1291
239.313;1291
239.375;1301
239.438;1293
239.500;1281
239.563;1284
239.625;1284
239.688;1281
239.750;1289
239.813;1303
239.875;1318
239.938;1315
240.000;1298
240.063;1301
240.125;1293
240.188;1286
240.250;1286
240.313;1281
240.375;1284
240.438;1281
240.500;1289
240.563;1296
240.625;1291
240.688;1289
240.750;1296
240.813;1296
240.875;1296
240.938;1303
241.000;1308
241.063;1296
241.125;1296
241.188;1306
241.250;1306
241.313;1308
241.375;1303
241.438;1313
241.500;1333
241.563;1325
241.625;1342
241.688;1325
241.750;1318
241.813;1330
241.875;1308
241.938;1313
242.000;1306
242.063;1325
242.125;1320
242.188;1323
242.250;1323
242.313;1325
242.375;1335
242.438;1323
242.500;1333
242.563;1325
242.625;1333
242.688;1330
242.750;1328
242.813;1323
242.875;1325
242.938;1323
243.000;1350
243.063;1357
243.125;1347
243.188;1340
243.250;1340
243.313;1337
243.375;1340
243.438;1325
243.500;1320
243.563;1325
243.625;1315
243.688;1325
243.750;1340
243.813;1333
243.875;1342
243.938;1345
244.000;1350
244.063;1372
244.125;1372
244.188;1374
244.250;1364
244.313;1347
244.375;1335
244.438;1315
244.500;1313
244.563;1308
244.625;1330
244.688;1357
244.750;1328
244.813;1328
244.875;1315
244.938;1308
245.000;1293
245.063;1301
245.125;1301
245.188;1296
245.250;1315
245.313;1318
245.375;1325
245.438;1323
245.500;1320
245.563;1308
245.625;1311
245.688;1318
245.750;1335
245.813;1428
245.875;1447
245.938;1457
246.000;1411
246.063;1391
246.125;1359
246.188;1335
246.250;1325
246.313;1320
246.375;1323
246.438;1337
246.500;1330
246.563;1323
246.625;1328
246.688;1342
246.750;1325
246.813;1315
246.875;1306
246.938;1318
247.000;1315
247.063;1320
247.125;1325
247.188;1325
247.250;1315
247.313;1318
247.375;1318
247.438;1325
247.500;1330
247.563;1330
247.625;1330
247.688;1330
247.750;1330
247.813;1328
247.875;1335
247.938;1333
248.000;1330
248.063;1328
248.125;1325
248.188;1325
248.250;1318
248.313;1311
248.375;1318
248.438;1315
248.500;1320
248.563;1328
248.625;1325
248.688;1328
248.750;1342
248.813;1364
248.875;1398
248.938;1416
249.000;1398
249.063;1376
249.125;1364
249.188;1357
249.250;1337
249.313;1359
249.375;1364
249.438;1398
249.500;1403
249.563;1374
249.625;1347
249.688;1333
249.750;1293
249.813;1289
249.875;1284
249.938;1301
250.000;1293
250.063;1311
250.125;1320
250.188;1362
250.250;1372
250.313;1347
250.375;1328
250.438;1323
250.500;1318
250.563;1315
250.625;1345
250.688;1352
250.750;1352
250.813;1323
250.875;1323
250.938;1350
251.000;1362
251.063;1376
251.125;1362
251.188;1345
251.250;1337
251.313;1328
251.375;1330
251.438;1323
251.500;1318
251.563;1311
251.625;1318
251.688;1323
251.750;1330
251.813;1340
251.875;1352
251.938;1386
252.000;1394
252.063;1416
252.125;1450
252.188;1469
252.250;1455
252.313;1411
252.375;1389
252.438;1340
252.500;1318
252.563;1308
252.625;1298
252.688;1293
252.750;1291
252.813;1298
252.875;1301
252.938;1296
253.000;1296
253.063;1296
253.125;1291
253.188;1289
253.250;1286
253.313;1286
253.375;1296
253.438;1298
253.500;1298
253.563;1313
253.625;1323
253.688;1337
253.750;1357
253.813;1418
253.875;1433
253.938;1447
254.000;1398
254.063;1396
254.125;1345
254.188;1318
254.250;1306
254.313;1350
254.375;1369
254.438;1406
254.500;1364
254.563;1337
254.625;1323
254.688;1291
254.750;1276
254.813;1274
254.875;1269
254.938;1262
255.000;1269
255.063;1274
255.125;1274
255.188;1279
255.250;1281
255.313;1286
255.375;1303
255.438;1313
255.500;1406
255.563;1418
255.625;1442
255.688;1394
255.750;1374
255.813;1347
255.875;1320
255.938;1315
256.000;1328
256.063;1303
256.125;1313
256.188;1303
256.250;1296
256.313;1311
256.375;1311
256.438;1318
256.500;1323
256.563;1352
256.625;1359
256.688;1364
256.750;1342
256.813;1335
256.875;1328
256.938;1342
257.000;1347
257.063;1379
257.125;1416
257.188;1433
257.250;1420
257.313;1376
257.375;1364
257.438;1318
257.500;1303
257.563;1303
257.625;1291
257.688;1311
257.750;1318
257.813;1320
257.875;1340
257.938;1320
258.000;1315
258.063;1308
258.125;1293
258.188;1298
258.250;1298
258.313;1301
258.375;1301
258.438;1303
258.500;1308
258.563;1350
258.625;1442
258.688;1479
258.750;1479
258.813;1411
258.875;1394
258.938;1328
259.000;1293
259.063;1289
259.125;1286
259.188;1284
259.250;1279
259.313;1276
259.375;1296
259.438;1291
259.500;1291
259.563;1284
259.625;1276
259.688;1269
259.750;1262
259.813;1293
259.875;1301
259.938;1306
260.000;1286
260.063;1284
260.125;1281
260.188;1279
260.250;1279
260.313;1281
260.375;1308
260.438;1330
260.500;1337
260.563;1333
260.625;1337
260.688;1325
260.750;1308
260.813;1306
260.875;1301
260.938;1315
261.000;1333
261.063;1345
261.125;1354
261.188;1342
261.250;1328
261.313;1320
261.375;1328
261.438;1325
261.500;1328
261.563;1345
261.625;1374
261.688;1386
261.750;1389
261.813;1386
261.875;1391
261.938;1372
262.000;1367
262.063;1352
262.125;1337
262.188;1337
262.250;1328
262.313;1308
262.375;1313
262.438;1308
262.500;1311
262.563;1298
262.625;1301
262.688;1293
262.750;1291
262.813;1303
262.875;1308
262.938;1298
263.000;1293
263.063;1296
263.125;1298
263.188;1303
263.250;1293
263.313;1289
263.375;1296
263.438;1298
263.500;1306
263.563;1323
263.625;1330
263.688;1333
263.750;1328
263.813;1325
263.875;1308
263.938;1306
264.000;1289
264.063;1289
264.125;1284
264.188;1286
264.250;1291
264.313;1279
264.375;1286
264.438;1276
264.500;1271
264.563;1269
264.625;1279
264.688;1269
264.750;1276
264.813;1264
264.875;1267
264.938;1276
265.000;1281
265.063;1279
265.125;1274
265.188;1293
265.250;1315
265.313;1345
265.375;1325
265.438;1333
265.500;1337
265.563;1313
265.625;1303
265.688;1296
265.750;1284
265.813;1281
265.875;1291
265.938;1296
266.000;1303
266.063;1308
266.125;1325
266.188;1325
266.250;1350
266.313;1352
266.375;1369
266.438;1352
266.500;1330
266.563;1323
266.625;1296
266.688;1298
266.750;1281
266.813;1284
266.875;1296
266.938;1298
267.000;1320
267.063;1320
267.125;1328
267.188;1303
267.250;1303
267.313;1306
267.375;1298
267.438;1289
267.500;1296
267.563;1289
267.625;1296
267.688;1286
267.750;1298
267.813;1311
267.875;1320
267.938;1323
268.000;1308
268.063;1311
268.125;1306
268.188;1298
268.250;1291
268.313;1303
268.375;1330
268.438;1357
268.500;1386
268.563;1352
268.625;1328
268.688;1311
268.750;1286
268.813;1271
268.875;1279
268.938;1271
269.000;1276
269.063;1271
269.125;1269
269.188;1269
269.250;1267
269.313;1262
269.375;1264
269.438;1267
269.500;1286
269.563;1284
269.625;1311
269.688;1303
269.750;1284
269.813;1298
269.875;1318
269.938;1340
270.000;1389
270.063;1354
270.125;1345
270.188;1328
270.250;1293
270.313;1276
270.375;1269
270.438;1274
270.500;1269
270.563;1276
270.625;1281
270.688;1284
270.750;1274
270.813;1274
270.875;1274
270.938;1281
271.000;1291
271.063;1296
271.125;1315
271.188;1325
271.250;1323
271.313;1301
271.375;1303
271.438;1293
271.500;1279
271.563;1289
271.625;1279
271.688;1274
271.750;1281
271.813;1286
271.875;1289
271.938;1284
272.000;1284
272.063;1279
272.125;1284
272.188;1279
272.250;1284
272.313;1296
272.375;1293
272.438;1286
272.500;1296
272.563;1289
272.625;1306
272.688;1298
272.750;1306
272.813;1306
272.875;1289
272.938;1296
273.000;1298
273.063;1291
273.125;1279
273.188;1289
273.250;1281
273.313;1291
273.375;1279
273.438;1284
273.500;1276
273.563;1281
273.625;1284
273.688;1274
273.750;1276
273.813;1269
273.875;1276
273.938;1269
274.000;1269
274.063;1274
274.125;1267
274.188;1264
274.250;1250
274.313;1262
274.375;1264
274.438;1281
274.500;1276
274.563;1267
274.625;1267
274.688;1262
274.750;1259
274.813;1264
274.875;1254
274.938;1247
275.000;1250
275.063;1254
275.125;1257
275.188;1254
275.250;1262
275.313;1257
275.375;1254
275.438;1257
275.500;1262
275.563;1269
275.625;1274
275.688;1259
275.750;1279
275.813;1279
275.875;1276
275.938;1284
276.000;1281
276.063;1281
276.125;1284
276.188;1291
276.250;1284
276.313;1279
276.375;1284
276.438;1352
276.500;1359
276.563;1394
276.625;1347
276.688;1325
276.750;1318
276.813;1303
276.875;1289
276.938;1289
277.000;1276
277.063;1291
277.125;1284
277.188;1286
277.250;1281
277.313;1276
277.375;1281
277.438;1279
277.500;1279
277.563;1274
277.625;1279
277.688;1281
277.750;1289
277.813;1286
277.875;1286
277.938;1269
278.000;1274
278.063;1267
278.125;1274
278.188;1264
278.250;1274
278.313;1269
278.375;1276
278.438;1269
278.500;1271
278.563;1267
278.625;1269
278.688;1267
278.750;1262
278.813;1262
278.875;1267
278.938;1264
279.000;1267
279.063;1262
279.125;1264
279.188;1259
279.250;1271
279.313;1271
279.375;1276
279.438;1281
279.500;1291
279.563;1286
279.625;1279
279.688;1279
279.750;1276
279.813;1279
279.875;1276
279.938;1262
280.000;1259
280.063;1267
280.125;1257
280.188;1250
280.250;1254
280.313;1267
280.375;1259
280.438;1259
280.500;1254
280.563;1254
280.625;1254
280.688;1262
280.750;1264
280.813;1262
280.875;1252
280.938;1264
281.000;1257
281.063;1269
281.125;1276
281.188;1271
281.250;1271
281.313;1276
281.375;1281
281.438;1281
281.500;1279
281.563;1279
281.625;1284
281.688;1281
281.750;1276
281.813;1293
281.875;1289
281.938;1296
282.000;1298
282.063;1298
282.125;1286
282.188;1289
282.250;1284
282.313;1286
282.375;1281
282.438;1284
282.500;1296
282.563;1296
282.625;1286
282.688;1291
282.750;1276
282.813;1284
282.875;1281
282.938;1286
283.000;1274
283.063;1281
283.125;1281
283.188;1274
283.250;1286
283.313;1271
283.375;1284
283.438;1271
283.500;1262
283.563;1264
283.625;1264
283.688;1267
283.750;1264
283.813;1271
283.875;1279
283.938;1269
284.000;1271
284.063;1279
284.125;1259
284.188;1264
284.250;1264
284.313;1257
284.375;1259
284.438;1262
284.500;1267
284.563;1257
284.625;1254
284.688;1254
284.750;1254
284.813;1252
284.875;1259
284.938;1254
285.000;1252
285.063;1262
285.125;1252
285.188;1250
285.250;1250
285.313;1250
285.375;1250
285.438;1247
285.500;1250
285.563;1247
285.625;1245
285.688;1252
285.750;1250
285.813;1252
285.875;1254
285.938;1247
286.000;1259
286.063;1264
286.125;1252
286.188;1264
286.250;1254
286.313;1262
286.375;1264
286.438;1271
286.500;1264
286.563;1269
286.625;1262
286.688;1274
286.750;1271
286.813;1269
286.875;1271
286.938;1267
287.000;1269
287.063;1264
287.125;1276
287.188;1286
287.250;1279
287.313;1286
287.375;1279
287.438;1267
287.500;1308
287.563;1298
287.625;1333
287.688;1303
287.750;1291
287.813;1286
287.875;1276
287.938;1259
288.000;1271
288.063;1267
288.125;1259
288.188;1264
288.250;1269
288.313;1264
288.375;1271
288.438;1257
288.500;1267
288.563;1264
288.625;1264
288.688;1257
288.750;1264
288.813;1250
288.875;1257
288.938;1257
289.000;1252
289.063;1254
289.125;1245
289.188;1250
289.250;1254
289.313;1250
289.375;1254
289.438;1250
289.500;1257
289.563;1254
289.625;1250
289.688;1250
289.750;1247
289.813;1252
289.875;1242
289.938;1242
290.000;1242
290.063;1254
290.125;1252
290.188;1247
290.250;1242
290.313;1250
290.375;1247
290.438;1252
290.500;1245
290.563;1240
290.625;1250
290.688;1245
290.750;1247
290.813;1240
290.875;1245
290.938;1247
291.000;1250
291.063;1252
291.125;1257
291.188;1264
291.250;1257
291.313;1257
291.375;1254
291.438;1262
291.500;1257
291.563;1259
291.625;1267
291.688;1257
291.750;1264
291.813;1267
291.875;1264
291.938;1267
292.000;1264
292.063;1264
292.125;1259
292.188;1259
292.250;1259
292.313;1257
292.375;1262
292.438;1259
292.500;1259
292.563;1262
292.625;1259
292.688;1250
292.750;1264
292.813;1271
292.875;1269
292.938;1269
293.000;1269
293.063;1257
293.125;1264
293.188;1269
293.250;1276
293.313;1262
293.375;1257
293.438;1259
293.500;1262
293.563;1264
293.625;1269
293.688;1267
293.750;1252
293.813;1252
293.875;1259
293.938;1257
294.000;1257
294.063;1250
294.125;1250
294.188;1252
294.250;1250
294.313;1245
294.375;1250
294.438;1250
294.500;1245
294.563;1245
294.625;1250
294.688;1247
294.750;1247
294.813;1242
294.875;1240
294.938;1247
295.000;1250
295.063;1245
295.125;1232
295.188;1250
295.250;1245
295.313;1247
295.375;1232
295.438;1237
295.500;1237
295.563;1242
295.625;1245
295.688;1254
295.750;1247
295.813;1245
295.875;1250
295.938;1257
296.000;1257
296.063;1247
296.125;1259
296.188;1267
296.250;1262
296.313;1262
296.375;1254
296.438;1259
296.500;1259
296.563;1262
296.625;1259
296.688;1254
296.750;1252
296.813;1259
296.875;1262
296.938;1267
297.000;1279
297.063;1281
297.125;1284
297.188;1274
297.250;1269
297.313;1267
297.375;1271
297.438;1264
297.500;1257
297.563;1252
297.625;1262
297.688;1262
297.750;1247
297.813;1254
297.875;1259
297.938;1254
298.000;1242
298.063;1257
298.125;1259
298.188;1250
298.250;1259
298.313;1257
298.375;1254
298.438;1254
298.500;1257
298.563;1303
298.625;1301
298.688;1311
298.750;1286
298.813;1274
298.875;1274
298.938;1257
299.000;1259
299.063;1264
299.125;1267
299.188;1267
299.250;1264
299.313;1259
299.375;1267
299.438;1254
299.500;1259
299.563;1254
299.625;1267
299.688;1252
299.750;1262
299.813;1250
299.875;1259
299.938;1259
300.000;1247
300.063;1252
300.125;1252
300.188;1237
300.250;1242
300.313;1247
300.375;1245
300.438;1240
300.500;1242
300.563;1237
300.625;1240
300.688;1247
300.750;1245
300.813;1240
300.875;1240
300.938;1240
301.000;1250
301.063;1250
301.125;1242
301.188;1254
301.250;1254
301.313;1252
301.375;1254
301.438;1257
301.500;1259
301.563;1257
301.625;1254
301.688;1252
301.750;1267
301.813;1259
301.875;1264
301.938;1271
302.000;1267
302.063;1276
302.125;1271
302.188;1271
302.250;1269
302.313;1267
302.375;1269
302.438;1257
302.500;1259
302.563;1264
302.625;1276
302.688;1267
302.750;1269
302.813;1267
302.875;1276
302.938;1274
303.000;1271
303.063;1276
303.125;1271
303.188;1271
303.250;1276
303.313;1271
303.375;1274
303.438;1274
303.500;1276
303.563;1271
303.625;1279
303.688;1271
303.750;1269
303.813;1262
303.875;1252
303.938;1259
304.000;1267
304.063;1269
304.125;1267
304.188;1274
304.250;1262
304.313;1262
304.375;1257
304.438;1264
304.500;1262
304.563;1252
304.625;1257
304.688;1259
304.750;1250
304.813;1252
304.875;1254
304.938;1240
305.000;1254
305.063;1250
305.125;1250
305.188;1250
305.250;1247
305.313;1252
305.375;1257
305.438;1250
305.500;1237
305.563;1247
305.625;1242
305.688;1247
305.750;1247
305.813;1245
305.875;1247
305.938;1247
306.000;1235
306.063;1240
306.125;1245
306.188;1254
306.250;1250
306.313;1250
306.375;1252
306.438;1254
306.500;1262
306.563;1250
306.625;1254
306.688;1252
306.750;1262
306.813;1257
306.875;1254
306.938;1267
307.000;1267
307.063;1264
307.125;1262
307.188;1259
307.250;1262
307.313;1257
307.375;1274
307.438;1271
307.500;1267
307.563;1276
307.625;1262
307.688;1259
307.750;1274
307.813;1271
307.875;1271
307.938;1269
308.000;1264
308.063;1271
308.125;1279
308.188;1271
308.250;1269
308.313;1264
308.375;1271
308.438;1267
308.500;1267
308.563;1274
308.625;1259
308.688;1257
308.750;1267
308.813;1262
308.875;1262
308.938;1264
309.000;1252
309.063;1254
309.125;1267
309.188;1257
309.250;1247
309.313;1257
309.375;1252
309.438;1250
309.500;1250
309.563;1264
309.625;1333
309.688;1345
309.750;1374
309.813;1325
309.875;1303
309.938;1291
310.000;1259
310.063;1254
310.125;1242
310.188;1240
310.250;1242
310.313;1245
310.375;1250
310.438;1245
310.500;1242
310.563;1242
310.625;1237
310.688;1240
310.750;1247
310.813;1240
310.875;1237
310.938;1235
311.000;1228
311.063;1242
311.125;1237
311.188;1245
311.250;1242
311.313;1237
311.375;1245
311.438;1240
311.500;1247
311.563;1250
311.625;1252
311.688;1254
311.750;1254
311.813;1254
311.875;1257
311.938;1245
312.000;1247
312.063;1252
312.125;1250
312.188;1252
312.250;1252
312.313;1254
312.375;1247
312.438;1257
312.500;1245
312.563;1254
312.625;1254
312.688;1252
312.750;1240
312.813;1247
312.875;1245
312.938;1245
313.000;1245
313.063;1247
313.125;1247
313.188;1247
313.250;1250
313.313;1250
313.375;1247
313.438;1245
313.500;1252
313.563;1257
313.625;1252
313.688;1240
313.750;1245
313.813;1245
313.875;1240
313.938;1250
314.000;1247
314.063;1247
314.125;1240
314.188;1237
314.250;1235
314.313;1240
314.375;1245
314.438;1230
314.500;1232
314.563;1235
314.625;1235
314.688;1235
314.750;1230
314.813;1230
314.875;1232
314.938;1228
315.000;1225
315.063;1230
315.125;1228
315.188;1230
315.250;1215
315.313;1232
315.375;1223
315.438;1225
315.500;1225
315.563;1228
315.625;1225
315.688;1218
315.750;1220
315.813;1223
315.875;1235
315.938;1228
316.000;1223
316.063;1220
316.125;1230
316.188;1225
316.250;1220
316.313;1228
316.375;1237
316.438;1237
316.500;1230
316.563;1228
316.625;1235
316.688;1228
316.750;1228
316.813;1230
316.875;1240
316.938;1235
317.000;1240
317.063;1235
317.125;1232
317.188;1230
317.250;1245
317.313;1247
317.375;1230
317.438;1245
317.500;1242
317.563;1235
317.625;1237
317.688;1235
317.750;1232
317.813;1232
317.875;1232
317.938;1232
318.000;1228
318.063;1232
318.125;1228
318.188;1235
318.250;1245
318.313;1242
318.375;1235
318.438;1232
318.500;1232
318.563;1220
318.625;1237
318.688;1235
318.750;1235
318.813;1230
318.875;1235
318.938;1230
319.000;1228
319.063;1237
319.125;1232
319.188;1225
319.250;1230
319.313;1230
319.375;1230
319.438;1225
319.500;1230
319.563;1220
319.625;1218
319.688;1228
319.750;1223
319.813;1228
319.875;1215
319.938;1210
320.000;1206
320.063;1206
320.125;1215
320.188;1215
320.250;1210
320.313;1213
320.375;1213
320.438;1208
320.500;1220
320.563;1210
320.625;1215
320.688;1228
320.750;1235
320.813;1242
320.875;1230
320.938;1213
321.000;1215
321.063;1206
321.125;1208
321.188;1213
321.250;1213
321.313;1210
321.375;1213
321.438;1210
321.500;1201
321.563;1215
321.625;1220
321.688;1218
321.750;1223
321.813;1223
321.875;1213
321.938;1213
322.000;1220
322.063;1225
322.125;1230
322.188;1225
322.250;1218
322.313;1223
322.375;1218
322.438;1225
322.500;1218
322.563;1225
322.625;1237
322.688;1232
322.750;1228
322.813;1225
322.875;1225
322.938;1225
323.000;1220
323.063;1218
323.125;1215
323.188;1225
323.250;1220
323.313;1220
323.375;1220
323.438;1225
323.500;1220
323.563;1213
323.625;1220
323.688;1225
323.750;1218
323.813;1225
323.875;1215
323.938;1218
324.000;1225
324.063;1223
324.125;1252
324.188;1237
324.250;1223
324.313;1213
324.375;1208
324.438;1215
324.500;1208
324.563;1208
324.625;1210
324.688;1210
324.750;1201
324.813;1210
324.875;1215
324.938;1201
325.000;1203
325.063;1206
325.125;1201
325.188;1206
325.250;1203
325.313;1198
325.375;1203
325.438;1208
325.500;1208
325.563;1206
325.625;1208
325.688;1198
325.750;1198
325.813;1203
325.875;1206
325.938;1201
326.000;1213
326.063;1203
326.125;1203
326.188;1196
326.250;1203
326.313;1196
326.375;1196
326.438;1203
326.500;1198
326.563;1203
326.625;1210
326.688;1210
326.750;1198
326.813;1208
326.875;1198
326.938;1206
327.000;1210
327.063;1213
327.125;1210
327.188;1210
327.250;1208
327.313;1206
327.375;1215
327.438;1215
327.500;1206
327.563;1213
327.625;1213
327.688;1210
327.750;1206
327.813;1215
327.875;1213
327.938;1210
328.000;1215
328.063;1213
328.125;1206
328.188;1213
328.250;1218
328.313;1215
328.375;1213
328.438;1215
328.500;1210
328.563;1208
328.625;1213
328.688;1213
328.750;1206
328.813;1215
328.875;1210
328.938;1208
329.000;1210
329.063;1203
329.125;1206
329.188;1201
329.250;1201
329.313;1198
329.375;1206
329.438;1201
329.500;1201
329.563;1203
329.625;1208
329.688;1208
329.750;1198
329.813;1196
329.875;1193
329.938;1188
330.000;1188
330.063;1198
330.125;1186
330.188;1188
330.250;1193
330.313;1188
330.375;1193
330.438;1188
330.500;1191
330.563;1188
330.625;1193
330.688;1179
330.750;1184
330.813;1186
330.875;1186
330.938;1188
331.000;1198
331.063;1181
331.125;1181
331.188;1184
331.250;1188
331.313;1191
331.375;1188
331.438;1198
331.500;1188
331.563;1179
331.625;1196
331.688;1206
331.750;1286
331.813;1284
331.875;1313
331.938;1271
332.000;1254
332.063;1230
332.125;1213
332.188;1206
332.250;1201
332.313;1198
332.375;1203
332.438;1208
332.500;1210
332.563;1208
332.625;1210
332.688;1208
332.750;1198
332.813;1206
332.875;1210
332.938;1208
333.000;1203
333.063;1206
333.125;1206
333.188;1198
333.250;1206
333.313;1203
333.375;1198
333.438;1203
333.500;1198
333.563;1198
333.625;1193
333.688;1198
333.750;1203
333.813;1203
333.875;1193
333.938;1201
334.000;1198
334.063;1196
334.125;1196
334.188;1193
334.250;1193
334.313;1198
334.375;1186
334.438;1188
334.500;1191
334.563;1186
334.625;1188
334.688;1186
334.750;1186
334.813;1191
334.875;1181
334.938;1186
335.000;1184
335.063;1186
335.125;1191
335.188;1186
335.250;1184
335.313;1188
335.375;1188
335.438;1191
335.500;1188
335.563;1191
335.625;1188
335.688;1188
335.750;1196
335.813;1186
335.875;1181
335.938;1188
336.000;1186
336.063;1198
336.125;1188
336.188;1193
336.250;1188
336.313;1179
336.375;1179
336.438;1179
336.500;1176
336.563;1179
336.625;1179
336.688;1181
336.750;1181
336.813;1164
336.875;1179
336.938;1181
337.000;1179
337.063;1181
337.125;1193
337.188;1196
337.250;1186
337.313;1193
337.375;1191
337.438;1191
337.500;1188
337.563;1193
337.625;1196
337.688;1198
337.750;1196
337.813;1193
337.875;1198
337.938;1191
338.000;1201
338.063;1208
338.125;1201
338.188;1206
338.250;1198
338.313;1198
338.375;1206
338.438;1193
338.500;1188
338.563;1193
338.625;1193
338.688;1203
338.750;1201
338.813;1196
338.875;1193
338.938;1193
339.000;1188
339.063;1191
339.125;1196
339.188;1196
339.250;1186
339.313;1184
339.375;1191
339.438;1181
339.500;1181
339.563;1176
339.625;1186
339.688;1181
339.750;1181
339.813;1181
339.875;1184
339.938;1191
340.000;1191
340.063;1181
340.125;1186
340.188;1186
340.250;1193
340.313;1184
340.375;1186
340.438;1181
340.500;1186
340.563;1174
340.625;1181
340.688;1176
340.750;1181
340.813;1179
340.875;1191
340.938;1188
341.000;1191
341.063;1181
341.125;1181
341.188;1188
341.250;1174
341.313;1184
341.375;1191
341.438;1188
341.500;1186
341.563;1193
341.625;1186
341.688;1188
341.750;1186
341.813;1193
341.875;1188
341.938;1186
342.000;1181
342.063;1176
342.125;1179
342.188;1179
342.250;1184
342.313;1176
342.375;1179
342.438;1188
342.500;1191
342.563;1188
342.625;1203
342.688;1193
342.750;1196
342.813;1201
342.875;1210
342.938;1210
343.000;1206
343.063;1201
343.125;1201
343.188;1215
343.250;1203
343.313;1208
343.375;1208
343.438;1201
343.500;1201
343.563;1203
343.625;1196
343.688;1203
343.750;1203
343.813;1198
343.875;1196
343.938;1196
344.000;1206
344.063;1213
344.125;1213
344.188;1208
344.250;1208
344.313;1198
344.375;1198
344.438;1193
344.500;1179
344.563;1186
344.625;1181
344.688;1186
344.750;1191
344.813;1179
344.875;1181
344.938;1181
345.000;1188
345.063;1184
345.125;1186
345.188;1181
345.250;1184
345.313;1198
345.375;1181
345.438;1174
345.500;1169
345.563;1184
345.625;1171
345.688;1179
345.750;1169
345.813;1171
345.875;1169
345.938;1179
346.000;1181
346.063;1186
346.125;1179
346.188;1171
346.250;1169
346.313;1174
346.375;1171
346.438;1166
346.500;1171
346.563;1181
346.625;1181
346.688;1188
346.750;1181
346.813;1176
346.875;1176
346.938;1176
347.000;1174
347.063;1179
347.125;1176
347.188;1174
347.250;1176
347.313;1174
347.375;1176
347.438;1184
347.500;1176
347.563;1181
347.625;1181
347.688;1184
347.750;1186
347.813;1184
347.875;1181
347.938;1188
348.000;1196
348.063;1191
348.125;1188
348.188;1184
348.250;1191
348.313;1191
348.375;1191
348.438;1193
348.500;1181
348.563;1181
348.625;1193
348.688;1188
348.750;1186
348.813;1186
348.875;1186
348.938;1186
349.000;1186
349.063;1191
349.125;1206
349.188;1203
349.250;1193
349.313;1203
349.375;1198
349.438;1201
349.500;1198
349.563;1201
349.625;1193
349.688;1203
349.750;1188
349.813;1186
349.875;1181
349.938;1193
350.000;1198
350.063;1208
350.125;1203
350.188;1193
350.250;1181
350.313;1171
350.375;1174
350.438;1159
350.500;1159
350.563;1159
350.625;1164
350.688;1162
350.750;1171
350.813;1166
350.875;1166
350.938;1162
351.000;1171
351.063;1164
351.125;1171
351.188;1174
351.250;1171
351.313;1169
351.375;1171
351.438;1164
351.500;1157
351.563;1164
351.625;1159
351.688;1157
351.750;1159
351.813;1164
351.875;1154
351.938;1166
352.000;1166
352.063;1157
352.125;1157
352.188;1166
352.250;1166
352.313;1171
352.375;1164
352.438;1174
352.500;1171
352.563;1162
352.625;1171
352.688;1174
352.750;1162
352.813;1166
352.875;1171
352.938;1169
353.000;1179
353.063;1174
353.125;1176
353.188;1171
353.250;1179
353.313;1174
353.375;1186
353.438;1179
353.500;1174
353.563;1174
353.625;1176
353.688;1176
353.750;1169
353.813;1174
353.875;1235
353.938;1242
354.000;1257
354.063;1230
354.125;1213
354.188;1188
354.250;1171
354.313;1166
354.375;1169
354.438;1164
354.500;1159
354.563;1169
354.625;1164
354.688;1157
354.750;1149
354.813;1152
354.875;1164
354.938;1164
355.000;1152
355.063;1152
355.125;1162
355.188;1157
355.250;1154
355.313;1154
355.375;1162
355.438;1152
355.500;1164
355.563;1159
355.625;1159
355.688;1162
355.750;1159
355.813;1166
355.875;1162
355.938;1166
356.000;1179
356.063;1171
356.125;1174
356.188;1169
356.250;1164
356.313;1174
356.375;1179
356.438;1171
356.500;1176
356.563;1171
356.625;1174
356.688;1157
356.750;1169
356.813;1174
356.875;1166
356.938;1171
357.000;1166
357.063;1174
357.125;1174
357.188;1166
357.250;1171
357.313;1164
357.375;1159
357.438;1166
357.500;1166
357.563;1166
357.625;1169
357.688;1171
357.750;1176
357.813;1166
357.875;1176
357.938;1171
358.000;1159
358.063;1171
358.125;1169
358.188;1169
358.250;1169
358.313;1171
358.375;1166
358.438;1171
358.500;1174
358.563;1162
358.625;1157
358.688;1162
358.750;1166
358.813;1166
358.875;1166
358.938;1166
359.000;1166
359.063;1169
359.125;1169
359.188;1164
359.250;1164
359.313;1166
359.375;1166
359.438;1162
359.500;1159
359.563;1159
359.625;1159
359.688;1154
359.750;1149
359.813;1157
359.875;1157
359.938;1157
360.000;1157
360.063;1154
360.125;1149
360.188;1149
360.250;1142
360.313;1142
360.375;1145
360.438;1154
360.500;1147
360.563;1142
360.625;1145
360.688;1142
360.750;1147
360.813;1147
360.875;1149
360.938;1152
361.000;1152
361.063;1149
361.125;1142
361.188;1162
361.250;1152
361.313;1145
361.375;1154
361.438;1159
361.500;1162
361.563;1162
361.625;1159
361.688;1157
361.750;1152
361.813;1154
361.875;1157
361.938;1162
362.000;1154
362.063;1159
362.125;1171
362.188;1166
362.250;1169
362.313;1164
362.375;1169
362.438;1171
362.500;1171
362.563;1169
362.625;1176
362.688;1179
362.750;1166
362.813;1169
362.875;1169
362.938;1166
363.000;1179
363.063;1254
363.125;1257
363.188;1289
363.250;1242
363.313;1269
363.375;1274
363.438;1293
363.500;1245
363.563;1232
363.625;1210
363.688;1237
363.750;1242
363.813;1279
363.875;1237
363.938;1250
364.000;1247
364.063;1257
364.125;1210
364.188;1203
364.250;1186
364.313;1164
364.375;1162
364.438;1162
364.500;1152
364.563;1164
364.625;1152
364.688;1149
364.750;1147
364.813;1147
364.875;1152
364.938;1166
365.000;1169
365.063;1179
365.125;1171
365.188;1174
365.250;1166
365.313;1164
365.375;1157
365.438;1159
365.500;1157
365.563;1157
365.625;1159
365.688;1171
365.750;1164
365.813;1169
365.875;1174
365.938;1171
366.000;1154
366.063;1164
366.125;1174
366.188;1169
366.250;1171
366.313;1179
366.375;1186
366.438;1184
366.500;1171
366.563;1179
366.625;1164
366.688;1162
366.750;1169
366.813;1166
366.875;1174
366.938;1164
367.000;1166
367.063;1166
367.125;1159
367.188;1159
367.250;1154
367.313;1157
367.375;1159
367.438;1154
367.500;1162
367.563;1152
367.625;1162
367.688;1166
367.750;1166
367.813;1159
367.875;1157
367.938;1164
368.000;1162
368.063;1157
368.125;1169
368.188;1171
368.250;1166
368.313;1166
368.375;1169
368.438;1171
368.500;1166
368.563;1169
368.625;1169
368.688;1171
368.750;1159
368.813;1169
368.875;1164
368.938;1164
369.000;1159
369.063;1154
369.125;1171
369.188;1166
369.250;1157
369.313;1162
369.375;1159
369.438;1157
369.500;1154
369.563;1166
369.625;1154
369.688;1166
369.750;1154
369.813;1171
369.875;1162
369.938;1166
370.000;1169
370.063;1171
370.125;1181
370.188;1181
370.250;1162
370.313;1169
370.375;1171
370.438;1176
370.500;1186
370.563;1186
370.625;1174
370.688;1174
370.750;1169
370.813;1181
370.875;1164
370.938;1159
371.000;1166
371.063;1162
371.125;1164
371.188;1166
371.250;1164
371.313;1162
371.375;1169
371.438;1162
371.500;1159
371.563;1169
371.625;1166
371.688;1164
371.750;1162
371.813;1164
371.875;1169
371.938;1154
372.000;1157
372.063;1164
372.125;1162
372.188;1159
372.250;1166
372.313;1166
372.375;1169
372.438;1164
372.500;1154
372.563;1166
372.625;1164
372.688;1166
372.750;1169
372.813;1164
372.875;1171
372.938;1179
373.000;1171
373.063;1166
373.125;1159
373.188;1166
373.250;1171
373.313;1159
373.375;1166
373.438;1164
373.500;1171
373.563;1169
373.625;1157
373.688;1164
373.750;1166
373.813;1174
373.875;1159
373.938;1152
374.000;1169
374.063;1162
374.125;1164
374.188;1166
374.250;1174
374.313;1169
374.375;1164
374.438;1159
374.500;1159
374.563;1164
374.625;1169
374.688;1162
374.750;1162
374.813;1159
374.875;1152
374.938;1164
375.000;1166
375.063;1164
375.125;1166
375.188;1159
375.250;1152
375.313;1154
375.375;1149
375.438;1152
375.500;1159
375.563;1169
375.625;1162
375.688;1162
375.750;1176
375.813;1179
375.875;1184
375.938;1235
376.000;1367
376.063;1403
376.125;1411
376.188;1354
376.250;1335
376.313;1262
376.375;1220
376.438;1206
376.500;1196
376.563;1196
376.625;1201
376.688;1193
376.750;1188
376.813;1184
376.875;1188
376.938;1201
377.000;1276
377.063;1584
377.125;1669
377.188;1728
377.250;1374
377.313;1606
377.375;1672
377.438;1726
377.500;1677
377.563;1621
377.625;1586
377.688;1616
377.750;1650
377.813;1701
377.875;1650
377.938;1608
378.000;1608
378.063;1655
378.125;1586
378.188;1538
378.250;1506
378.313;1347
378.375;1235
378.438;1203
378.500;1191
378.563;1188
378.625;1193
378.688;1193
378.750;1188
378.813;1188
378.875;1196
378.938;1191
379.000;1201
379.063;1193
379.125;1193
379.188;1196
379.250;1186
379.313;1191
379.375;1186
379.438;1181
379.500;1169
379.563;1171
379.625;1176
379.688;1159
379.750;1162
379.813;1157
379.875;1162
379.938;1157
380.000;1174
380.063;1169
380.125;1201
380.188;1323
380.250;1362
380.313;1354
380.375;1291
380.438;1279
380.500;1210
380.563;1169
380.625;1147
380.688;1159
380.750;1296
380.813;1352
380.875;1408
380.938;1350
381.000;1306
381.063;1281
381.125;1193
381.188;1159
381.250;1140
381.313;1145
381.375;1147
381.438;1154
381.500;1154
381.563;1154
381.625;1142
381.688;1154
381.750;1147
381.813;1149
381.875;1152
381.938;1152
382.000;1162
382.063;1154
382.125;1162
382.188;1159
382.250;1162
382.313;1147
382.375;1154
382.438;1140
382.500;1159
382.563;1152
382.625;1157
382.688;1162
382.750;1159
382.813;1164
382.875;1176
382.938;1174
383.000;1162
383.063;1176
383.125;1169
383.188;1166
383.250;1162
383.313;1171
383.375;1166
383.438;1164
383.500;1174
383.563;1174
383.625;1176
383.688;1179
383.750;1171
383.813;1174
383.875;1164
383.938;1164
384.000;1164
384.063;1171
384.125;1169
384.188;1169
384.250;1164
384.313;1164
384.375;1154
384.438;1164
384.500;1159
384.563;1157
384.625;1154
384.688;1152
384.750;1149
384.813;1154
384.875;1162
384.938;1152
385.000;1147
385.063;1157
385.125;1152
385.188;1152
385.250;1154
385.313;1145
385.375;1147
385.438;1152
385.500;1149
385.563;1152
385.625;1142
385.688;1152
385.750;1149
385.813;1149
385.875;1142
385.938;1142
386.000;1152
386.063;1147
386.125;1154
386.188;1149
386.250;1152
386.313;1157
386.375;1159
386.438;1149
386.500;1152
386.563;1159
386.625;1154
386.688;1152
386.750;1166
386.813;1154
386.875;1164
386.938;1171
387.000;1206
387.063;1345
387.125;1386
387.188;1389
387.250;1323
387.313;1311
387.375;1232
387.438;1188
387.500;1169
387.563;1164
387.625;1166
387.688;1169
387.750;1159
387.813;1162
387.875;1157
387.938;1159
388.000;1149
388.063;1152
388.125;1164
388.188;1157
388.250;1152
388.313;1149
388.375;1149
388.438;1157
388.500;1157
388.563;1166
388.625;1157
388.688;1166
388.750;1164
388.813;1159
388.875;1157
388.938;1159
389.000;1162
389.063;1162
389.125;1157
389.188;1162
389.250;1164
389.313;1162
389.375;1159
389.438;1162
389.500;1157
389.563;1171
389.625;1174
389.688;1159
389.750;1154
389.813;1159
389.875;1159
389.938;1159
390.000;1162
390.063;1162
390.125;1152
390.188;1159
390.250;1157
390.313;1162
390.375;1159
390.438;1152
390.500;1157
390.563;1157
390.625;1159
390.688;1159
390.750;1142
390.813;1157
390.875;1166
390.938;1228
391.000;1403
391.063;1743
391.125;1865
391.188;1943
391.250;1899
391.313;1857
391.375;1923
391.438;1962
391.500;1909
391.563;1862
391.625;1835
391.688;1823
391.750;1884
391.813;1953
391.875;1901
391.938;1855
392.000;1867
392.063;1904
392.125;1855
392.188;1806
392.250;1784
392.313;1611
392.375;1398
392.438;1228
392.500;1181
392.563;1171
392.625;1166
392.688;1166
392.750;1166
392.813;1152
392.875;1159
392.938;1169
393.000;1169
393.063;1166
393.125;1169
393.188;1174
393.250;1174
393.313;1164
393.375;1159
393.438;1164
393.500;1169
393.563;1162
393.625;1169
393.688;1184
393.750;1171
393.813;1169
393.875;1174
393.938;1174
394.000;1176
394.063;1188
394.125;1337
394.188;1589
394.250;1638
394.313;1655
394.375;1584
394.438;1560
394.500;1452
394.563;1274
394.625;1196
394.688;1210
394.750;1489
394.813;1608
394.875;1677
394.938;1630
395.000;1574
395.063;1550
395.125;1384
395.188;1232
395.250;1166
395.313;1166
395.375;1157
395.438;1157
395.500;1152
395.563;1145
395.625;1149
395.688;1149
395.750;1159
395.813;1157
395.875;1152
395.938;1145
396.000;1142
396.063;1147
396.125;1149
396.188;1147
396.250;1142
396.313;1152
396.375;1145
396.438;1159
396.500;1152
396.563;1145
396.625;1154
396.688;1179
396.750;1179
396.813;1208
396.875;1220
396.938;1213
397.000;1203
397.063;1206
397.125;1215
397.188;1215
397.250;1181
397.313;1181
397.375;1191
397.438;1218
397.500;1230
397.563;1225
397.625;1203
397.688;1206
397.750;1215
397.813;1201
397.875;1174
397.938;1174
398.000;1171
398.063;1213
398.125;1318
398.188;1367
398.250;1364
398.313;1303
398.375;1286
398.438;1223
398.500;1179
398.563;1174
398.625;1169
398.688;1171
398.750;1171
398.813;1174
398.875;1169
398.938;1171
399.000;1176
399.063;1176
399.125;1181
399.188;1179
399.250;1166
399.313;1171
399.375;1176
399.438;1174
399.500;1154
399.563;1171
399.625;1166
399.688;1164
399.750;1171
399.813;1179
399.875;1171
399.938;1179
400.000;1166
400.063;1169
400.125;1174
400.188;1171
400.250;1162
400.313;1157
400.375;1152
400.438;1152
400.500;1162
400.563;1149
400.625;1147
400.688;1149
400.750;1135
400.813;1135
400.875;1147
400.938;1142
401.000;1142
401.063;1149
401.125;1140
401.188;1142
401.250;1142
401.313;1142
401.375;1137
401.438;1135
401.500;1145
401.563;1149
401.625;1159
401.688;1147
401.750;1145
401.813;1140
401.875;1145
401.938;1145
402.000;1152
402.063;1142
402.125;1147
402.188;1149
402.250;1142
402.313;1152
402.375;1149
402.438;1147
402.500;1145
402.563;1145
402.625;1145
402.688;1149
402.750;1157
402.813;1154
402.875;1152
402.938;1149
403.000;1149
403.063;1152
403.125;1152
403.188;1152
403.250;1152
403.313;1162
403.375;1162
403.438;1157
403.500;1159
403.563;1162
403.625;1162
403.688;1162
403.750;1164
403.813;1162
403.875;1154
403.938;1154
404.000;1154
404.063;1149
404.125;1157
404.188;1164
404.250;1152
404.313;1154
404.375;1159
404.438;1157
404.500;1149
404.563;1152
404.625;1157
404.688;1154
404.750;1154
404.813;1159
404.875;1149
404.938;1154
405.000;1196
405.063;1433
405.125;1596
405.188;1665
405.250;1635
405.313;1584
405.375;1640
405.438;1689
405.500;1655
405.563;1601
405.625;1579
405.688;1530
405.750;1616
405.813;1672
405.875;1640
405.938;1584
406.000;1606
406.063;1638
406.125;1608
406.188;1545
406.250;1523
406.313;1379
406.375;1225
406.438;1157
406.500;1149
406.563;1140
406.625;1149
406.688;1145
406.750;1147
406.813;1140
406.875;1152
406.938;1149
407.000;1147
407.063;1145
407.125;1147
407.188;1140
407.250;1145
407.313;1145
407.375;1152
407.438;1154
407.500;1159
407.563;1154
407.625;1159
407.688;1157
407.750;1159
407.813;1162
407.875;1162
407.938;1149
408.000;1152
408.063;1162
408.125;1186
408.188;1345
408.250;1367
408.313;1401
408.375;1333
408.438;1308
408.500;1242
408.563;1186
408.625;1171
408.688;1179
408.750;1235
408.813;1328
408.875;1384
408.938;1357
409.000;1301
409.063;1289
409.125;1281
409.188;1403
409.250;1447
409.313;1440
409.375;1374
409.438;1362
409.500;1259
409.563;1191
409.625;1169
409.688;1169
409.750;1164
409.813;1169
409.875;1169
409.938;1157
410.000;1169
410.063;1169
410.125;1166
410.188;1166
410.250;1169
410.313;1157
410.375;1157
410.438;1164
410.500;1152
410.563;1166
410.625;1171
410.688;1162
410.750;1162
410.813;1164
410.875;1164
410.938;1157
411.000;1154
411.063;1162
411.125;1152
411.188;1142
411.250;1137
411.313;1140
411.375;1137
411.438;1142
411.500;1142
411.563;1145
411.625;1135
411.688;1132
411.750;1154
411.813;1142
411.875;1137
411.938;1127
412.000;1132
412.063;1135
412.125;1130
412.188;1145
412.250;1147
412.313;1145
412.375;1140
412.438;1132
412.500;1137
412.563;1147
412.625;1149
412.688;1157
412.750;1154
412.813;1152
412.875;1149
412.938;1145
413.000;1145
413.063;1154
413.125;1149
413.188;1142
413.250;1157
413.313;1147
413.375;1152
413.438;1142
413.500;1149
413.563;1159
413.625;1166
413.688;1162
413.750;1154
413.813;1157
413.875;1159
413.938;1152
414.000;1147
414.063;1159
414.125;1159
414.188;1152
414.250;1145
414.313;1140
414.375;1152
414.438;1152
414.500;1147
414.563;1154
414.625;1147
414.688;1142
414.750;1152
414.813;1159
414.875;1152
414.938;1149
415.000;1145
415.063;1152
415.125;1147
415.188;1137
415.250;1137
415.313;1142
415.375;1145
415.438;1145
415.500;1132
415.563;1130
415.625;1137
415.688;1132
415.750;1140
415.813;1130
415.875;1140
415.938;1130
416.000;1132
416.063;1132
416.125;1125
416.188;1135
416.250;1130
416.313;1130
416.375;1130
416.438;1140
416.500;1137
416.563;1135
416.625;1140
416.688;1147
416.750;1145
416.813;1142
416.875;1135
416.938;1137
417.000;1137
417.063;1132
417.125;1142
417.188;1142
417.250;1130
417.313;1149
417.375;1152
417.438;1147
417.500;1176
417.563;1176
417.625;1196
417.688;1176
417.750;1164
417.813;1159
417.875;1149
417.938;1142
418.000;1149
418.063;1149
418.125;1149
418.188;1152
418.250;1149
418.313;1149
418.375;1147
418.438;1147
418.500;1152
418.563;1145
418.625;1154
418.688;1145
418.750;1154
418.813;1149
418.875;1152
418.938;1152
419.000;1162
419.063;1186
419.125;1281
419.188;1313
419.250;1306
419.313;1271
419.375;1293
419.438;1308
419.500;1289
419.563;1245
419.625;1235
419.688;1206
419.750;1230
419.813;1257
419.875;1240
419.938;1220
420.000;1247
420.063;1250
420.125;1247
420.188;1279
420.250;1364
420.313;1418
420.375;1396
420.438;1347
420.500;1320
420.563;1245
420.625;1201
420.688;1166
420.750;1164
420.813;1154
420.875;1149
420.938;1147
421.000;1140
421.063;1142
421.125;1145
421.188;1145
421.250;1140
421.313;1147
421.375;1152
421.438;1137
421.500;1135
421.563;1140
421.625;1135
421.688;1140
421.750;1140
421.813;1132
421.875;1135
421.938;1135
422.000;1142
422.063;1140
422.125;1145
422.188;1162
422.250;1159
422.313;1159
422.375;1154
422.438;1149
422.500;1145
422.563;1142
422.625;1147
422.688;1147
422.750;1149
422.813;1176
422.875;1179
422.938;1166
423.000;1162
423.063;1164
423.125;1159
423.188;1147
423.250;1149
423.313;1154
423.375;1152
423.438;1149
423.500;1149
423.563;1152
423.625;1159
423.688;1162
423.750;1159
423.813;1169
423.875;1169
423.938;1179
424.000;1174
424.063;1176
424.125;1186
424.188;1188
424.250;1166
424.313;1174
424.375;1169
424.438;1171
424.500;1184
424.563;1179
424.625;1169
424.688;1166
424.750;1174
424.813;1174
424.875;1169
424.938;1166
425.000;1164
425.063;1149
425.125;1149
425.188;1147
425.250;1145
425.313;1132
425.375;1132
425.438;1147
425.500;1140
425.563;1140
425.625;1132
425.688;1137
425.750;1142
425.813;1135
425.875;1147
425.938;1147
426.000;1132
426.063;1123
426.125;1130
426.188;1132
426.250;1132
426.313;1125
426.375;1135
426.438;1132
426.500;1132
426.563;1140
426.625;1125
426.688;1118
426.750;1125
426.813;1127
426.875;1130
426.938;1118
427.000;1127
427.063;1125
427.125;1125
427.188;1125
427.250;1120
427.313;1132
427.375;1135
427.438;1130
427.500;1132
427.563;1135
427.625;1137
427.688;1140
427.750;1135
427.813;1132
427.875;1142
427.938;1142
428.000;1142
428.063;1145
428.125;1132
428.188;1147
428.250;1145
428.313;1142
428.375;1140
428.438;1152
428.500;1145
428.563;1152
428.625;1149
428.688;1149
428.750;1145
428.813;1149
428.875;1142
428.938;1140
429.000;1140
429.063;1152
429.125;1152
429.188;1145
429.250;1147
429.313;1145
429.375;1145
429.438;1142
429.500;1152
429.563;1154
429.625;1152
429.688;1149
429.750;1147
429.813;1140
429.875;1137
429.938;1152
430.000;1152
430.063;1142
430.125;1149
430.188;1145
430.250;1149
430.313;1140
430.375;1152
430.438;1154
430.500;1154
430.563;1162
430.625;1162
430.688;1171
430.750;1171
430.813;1171
430.875;1174
430.938;1179
431.000;1179
431.063;1188
431.125;1203
431.188;1228
431.250;1428
431.313;1572
431.375;1640
431.438;1611
431.500;1547
431.563;1528
431.625;1394
431.688;1257
431.750;1198
431.813;1181
431.875;1179
431.938;1164
432.000;1174
432.063;1171
432.125;1176
432.188;1176
432.250;1166
432.313;1184
432.375;1174
432.438;1166
432.500;1169
432.563;1174
432.625;1164
432.688;1159
432.750;1154
432.813;1157
432.875;1154
432.938;1152
433.000;1152
433.063;1159
433.125;1171
433.188;1179
433.250;1164
433.313;1166
433.375;1166
433.438;1162
433.500;1169
433.563;1152
433.625;1149
433.688;1149
433.750;1157
433.813;1164
433.875;1203
433.938;1225
434.000;1220
434.063;1188
434.125;1181
434.188;1157
434.250;1154
434.313;1149
434.375;1145
434.438;1142
434.500;1137
434.563;1135
434.625;1149
434.688;1145
434.750;1154
434.813;1152
434.875;1152
434.938;1157
435.000;1152
435.063;1154
435.125;1157
435.188;1147
435.250;1152
435.313;1154
435.375;1174
435.438;1184
435.500;1201
435.563;1223
435.625;1228
435.688;1215
435.750;1242
435.813;1242
435.875;1245
435.938;1247
436.000;1279
436.063;1245
436.125;1254
436.188;1271
436.250;1279
436.313;1291
436.375;1279
436.438;1303
436.500;1313
436.563;1311
436.625;1345
436.688;1354
436.750;1367
436.813;1374
436.875;1364
436.938;1354
437.000;1337
437.063;1328
437.125;1315
437.188;1318
437.250;1306
437.313;1298
437.375;1286
437.438;1289
437.500;1289
437.563;1289
437.625;1291
437.688;1301
437.750;1301
437.813;1291
437.875;1293
437.938;1301
438.000;1291
438.063;1298
438.125;1308
438.188;1311
438.250;1308
438.313;1308
438.375;1313
438.438;1308
438.500;1315
438.563;1315
438.625;1306
438.688;1306
438.750;1306
438.813;1311
438.875;1298
438.938;1301
439.000;1298
439.063;1279
439.125;1242
439.188;1215
439.250;1191
439.313;1164
439.375;1149
439.438;1142
439.500;1147
439.563;1149
439.625;1149
439.688;1142
439.750;1145
439.813;1149
439.875;1149
439.938;1152
440.000;1147
440.063;1152
440.125;1154
440.188;1159
440.250;1149
440.313;1159
440.375;1157
440.438;1152
440.500;1159
440.563;1154
440.625;1154
440.688;1145
440.750;1154
440.813;1140
440.875;1140
440.938;1145
441.000;1142
441.063;1130
441.125;1137
441.188;1130
441.250;1135
441.313;1127
441.375;1127
441.438;1130
441.500;1135
441.563;1135
441.625;1137
441.688;1130
441.750;1140
441.813;1135
441.875;1142
441.938;1145
442.000;1149
442.063;1164
442.125;1157
442.188;1184
442.250;1203
442.313;1215
442.375;1235
442.438;1257
442.500;1247
442.563;1228
442.625;1206
442.688;1184
442.750;1179
442.813;1166
442.875;1181
442.938;1196
443.000;1188
443.063;1166
443.125;1171
443.188;1201
443.250;1176
443.313;1179
443.375;1179
443.438;1174
443.500;1176
443.563;1169
443.625;1176
443.688;1171
443.750;1171
443.813;1157
443.875;1157
443.938;1159
444.000;1159
444.063;1164
444.125;1162
444.188;1159
444.250;1162
444.313;1176
444.375;1184
444.438;1188
444.500;1208
444.563;1228
444.625;1237
444.688;1230
444.750;1240
444.813;1237
444.875;1250
444.938;1254
445.000;1254
445.063;1257
445.125;1254
445.188;1247
445.250;1259
445.313;1240
445.375;1232
445.438;1235
445.500;1242
445.563;1237
445.625;1235
445.688;1240
445.750;1235
445.813;1250
445.875;1250
445.938;1259
446.000;1269
446.063;1274
446.125;1291
446.188;1293
446.250;1298
446.313;1291
446.375;1298
446.438;1296
446.500;1291
446.563;1286
446.625;1279
446.688;1276
446.750;1284
446.813;1286
446.875;1286
446.938;1286
447.000;1284
447.063;1271
447.125;1284
447.188;1284
447.250;1269
447.313;1267
447.375;1267
447.438;1264
447.500;1262
447.563;1267
447.625;1267
447.688;1264
447.750;1269
447.813;1264
447.875;1274
447.938;1271
448.000;1271
448.063;1254
448.125;1254
448.188;1237
448.250;1245
448.313;1237
448.375;1228
448.438;1237
448.500;1228
448.563;1237
448.625;1232
448.688;1254
448.750;1252
448.813;1276
448.875;1269
448.938;1279
449.000;1274
449.063;1276
449.125;1279
449.188;1254
449.250;1279
449.313;1364
449.375;1484
449.438;1535
449.500;1542
449.563;1589
449.625;1611
449.688;1601
449.750;1623
449.813;1628
449.875;1621
449.938;1643
450.000;1655
450.063;1645
450.125;1169
450.188;1074
450.250;1335
450.313;1582
450.375;1745
450.438;1376
450.500;1435
450.563;1767
450.625;1811
450.688;1791
450.750;1782
450.813;1767
450.875;1750
450.938;1752
451.000;1743
451.063;1723
451.125;1721
451.188;1711
451.250;1708
451.313;1718
451.375;1706
451.438;1708
451.500;1716
451.563;1733
451.625;1728
451.688;1750
451.750;1757
451.813;1757
451.875;1745
451.938;1762
452.000;1782
452.063;1774
452.125;1782
452.188;1794
452.250;1791
452.313;1801
452.375;1794
452.438;1818
452.500;1826
452.563;1816
452.625;1804
452.688;1799
452.750;1799
452.813;1813
452.875;1796
452.938;1794
453.000;1787
453.063;1762
453.125;1723
453.188;1657
453.250;1604
453.313;1513
453.375;1413
453.438;1447
453.500;1491
453.563;1472
453.625;1423
453.688;1398
453.750;1315
453.813;1279
453.875;1271
453.938;1276
454.000;1281
454.063;1274
454.125;1276
454.188;1279
454.250;1286
454.313;1276
454.375;1264
454.438;1267
454.500;1264
454.563;1269
454.625;1274
454.688;1279
454.750;1279
454.813;1276
454.875;1281
454.938;1289
455.000;1281
455.063;1279
455.125;1271
455.188;1267
455.250;1252
455.313;1257
455.375;1252
455.438;1252
455.500;1254
455.563;1252
455.625;1247
455.688;1259
455.750;1259
455.813;1262
455.875;1262
455.938;1252
456.000;1250
456.063;1242
456.125;1252
456.188;1254
456.250;1250
456.313;1262
456.375;1254
456.438;1252
456.500;1257
456.563;1247
456.625;1245
456.688;1240
456.750;1237
456.813;1228
456.875;1215
456.938;1215
457.000;1223
457.063;1206
457.125;1223
457.188;1228
457.250;1230
457.313;1225
457.375;1225
457.438;1242
457.500;1257
457.563;1257
457.625;1271
457.688;1269
457.750;1281
457.813;1279
457.875;1276
457.938;1262
458.000;1247
458.063;1240
458.125;1237
458.188;1237
458.250;1245
458.313;1259
458.375;1279
458.438;1303
458.500;1374
458.563;1437
458.625;1486
458.688;1469
458.750;1459
458.813;1464
458.875;1445
458.938;1450
459.000;1462
459.063;1455
459.125;1481
459.188;1467
459.250;1469
459.313;1472
459.375;1450
459.438;1462
459.500;1440
459.563;1455
459.625;1445
459.688;1452
459.750;1472
459.813;1479
459.875;1496
459.938;1518
460.000;1518
460.063;1530
460.125;1535
460.188;1535
460.250;1535
460.313;1542
460.375;1540
460.438;1538
460.500;1533
460.563;1530
460.625;1520
460.688;1518
460.750;1518
460.813;1518
460.875;1508
460.938;1516
461.000;1518
461.063;1511
461.125;1520
461.188;1518
461.250;1511
461.313;1511
461.375;1503
461.438;1496
461.500;1489
461.563;1494
461.625;1501
461.688;1499
461.750;1494
461.813;1499
461.875;1494
461.938;1486
462.000;1494
462.063;1484
462.125;1486
462.188;1474
462.250;1481
462.313;1467
462.375;1467
462.438;1457
462.500;1462
462.563;1464
462.625;1464
462.688;1494
462.750;1499
462.813;1540
462.875;1540
462.938;1528
463.000;1547
463.063;1520
463.125;1542
463.188;1518
463.250;1528
463.313;1599
463.375;1689
463.438;1750
463.500;1767
463.563;1794
463.625;1791
463.688;1823
463.750;1828
463.813;1813
463.875;1843
463.938;1816
464.000;1875
464.063;1870
464.125;1848
464.188;1860
464.250;1867
464.313;1892
464.375;1887
464.438;1906
464.500;1923
464.563;1931
464.625;1960
464.688;1987
464.750;2016
464.813;2016
464.875;2009
464.938;2004
465.000;1992
465.063;1972
465.125;1965
465.188;1962
465.250;1962
465.313;1950
465.375;1936
465.438;1940
465.500;1945
465.563;1958
465.625;1958
465.688;1970
465.750;1977
465.813;1970
465.875;1970
465.938;1977
466.000;1982
466.063;2004
466.125;2011
466.188;2033
466.250;2028
466.313;2031
466.375;2028
466.438;2038
466.500;2048
466.563;2048
466.625;2028
466.688;2031
466.750;2031
466.813;2023
466.875;2019
466.938;2016
467.000;2014
467.063;1992
467.125;1953
467.188;1887
467.250;1823
467.313;1721
467.375;1599
467.438;1508
467.500;1494
467.563;1486
467.625;1496
467.688;1486
467.750;1464
467.813;1459
467.875;1457
467.938;1452
468.000;1455
468.063;1447
468.125;1457
468.188;1435
468.250;1440
468.313;1416
468.375;1413
468.438;1391
468.500;1416
468.563;1442
468.625;1462
468.688;1464
468.750;1467
468.813;1479
468.875;1499
468.938;1523
469.000;1523
469.063;1523
469.125;1508
469.188;1503
469.250;1499
469.313;1491
469.375;1501
469.438;1484
469.500;1496
469.563;1491
469.625;1484
469.688;1486
469.750;1462
469.813;1477
469.875;1455
469.938;1447
470.000;1442
470.063;1435
470.125;1428
470.188;1425
470.250;1418
470.313;1423
470.375;1445
470.438;1455
470.500;1423
470.563;1413
470.625;1391
470.688;1376
470.750;1367
470.813;1340
470.875;1311
470.938;1296
471.000;1281
471.063;1293
471.125;1301
471.188;1333
471.250;1354
471.313;1401
471.375;1435
471.438;1457
471.500;1489
471.563;1508
471.625;1523
471.688;1545
471.750;1562
471.813;1569
471.875;1547
471.938;1523
472.000;1472
472.063;1425
472.125;1357
472.188;1313
472.250;1291
472.313;1281
472.375;1274
472.438;1291
472.500;1291
472.563;1318
472.625;1335
472.688;1333
472.750;1323
472.813;1323
472.875;1313
472.938;1315
473.000;1328
473.063;1323
473.125;1325
473.188;1323
473.250;1328
473.313;1340
473.375;1308
473.438;1323
473.500;1306
473.563;1323
473.625;1318
473.688;1325
473.750;1325
473.813;1328
473.875;1345
473.938;1347
474.000;1350
474.063;1357
474.125;1362
474.188;1362
474.250;1364
474.313;1367
474.375;1367
474.438;1364
474.500;1354
474.563;1345
474.625;1345
474.688;1345
474.750;1335
474.813;1335
474.875;1330
474.938;1330
475.000;1333
475.063;1340
475.125;1333
475.188;1335
475.250;1328
475.313;1337
475.375;1328
475.438;1340
475.500;1450
475.563;1545
475.625;1601
475.688;1562
475.750;1516
475.813;1499
475.875;1401
475.938;1345
476.000;1320
476.063;1320
476.125;1313
476.188;1301
476.250;1308
476.313;1301
476.375;1303
476.438;1293
476.500;1289
476.563;1291
476.625;1296
476.688;1296
476.750;1313
476.813;1335
476.875;1347
476.938;1342
477.000;1359
477.063;1340
477.125;1369
477.188;1345
477.250;1354
477.313;1418
477.375;1523
477.438;1596
477.500;1638
477.563;1628
477.625;1562
477.688;1589
477.750;1582
477.813;1577
477.875;1591
477.938;1599
478.000;1618
478.063;1618
478.125;1640
478.188;1657
478.250;1655
478.313;1689
478.375;1674
478.438;1694
478.500;1723
478.563;1716
478.625;1757
478.688;1772
478.750;1791
478.813;1791
478.875;1796
478.938;1789
479.000;1772
479.063;1757
479.125;1750
479.188;1748
479.250;1740
479.313;1748
479.375;1743
479.438;1750
479.500;1752
479.563;1767
479.625;1784
479.688;1787
479.750;1801
479.813;1806
479.875;1804
479.938;1804
480.000;1809
480.063;1813
480.125;1811
480.188;1804
480.250;1801
480.313;1799
480.375;1794
480.438;1796
480.500;1784
480.563;1779
480.625;1770
480.688;1765
480.750;1765
480.813;1765
480.875;1760
480.938;1757
481.000;1752
481.063;1748
481.125;1730
481.188;1696
481.250;1672
481.313;1665
481.375;1645
481.438;1635
481.500;1652
481.563;1647
481.625;1643
481.688;1638
481.750;1628
481.813;1613
481.875;1601
481.938;1579
482.000;1560
482.063;1545
482.125;1530
482.188;1494
482.250;1474
482.313;1455
482.375;1440
482.438;1418
482.500;1452
482.563;1472
482.625;1516
482.688;1550
482.750;1577
482.813;1623
482.875;1643
482.938;1652
483.000;1655
483.063;1677
483.125;1687
483.188;1689
483.250;1699
483.313;1713
483.375;1723
483.438;1718
483.500;1733
483.563;1740
483.625;1748
483.688;1750
483.750;1743
483.813;1743
483.875;1743
483.938;1733
484.000;1718
484.063;1718
484.125;1708
484.188;1723
484.250;1713
484.313;1708
484.375;1713
484.438;1718
484.500;1701
484.563;1689
484.625;1679
484.688;1655
484.750;1623
484.813;1582
484.875;1535
484.938;1494
485.000;1462
485.063;1452
485.125;1489
485.188;1540
485.250;1586
485.313;1633
485.375;1679
485.438;1694
485.500;1716
485.563;1743
485.625;1760
485.688;1777
485.750;1784
485.813;1796
485.875;1779
485.938;1770
486.000;1696
486.063;1633
486.125;1535
486.188;1401
486.250;1323
486.313;1308
486.375;1320
486.438;1313
486.500;1323
486.563;1340
486.625;1367
486.688;1386
486.750;1367
486.813;1345
486.875;1342
486.938;1315
487.000;1315
487.063;1306
487.125;1296
487.188;1296
487.250;1291
487.313;1286
487.375;1284
487.438;1291
487.500;1306
487.563;1308
487.625;1301
487.688;1296
487.750;1284
487.813;1279
487.875;1267
487.938;1264
488.000;1250
488.063;1247
488.125;1245
488.188;1250
488.250;1245
488.313;1245
488.375;1254
488.438;1259
488.500;1250
488.563;1262
488.625;1250
488.688;1254
488.750;1252
488.813;1257
488.875;1252
488.938;1259
489.000;1252
489.063;1254
489.125;1250
489.188;1245
489.250;1252
489.313;1245
489.375;1240
489.438;1242
489.500;1240
489.563;1240
489.625;1235
489.688;1237
489.750;1230
489.813;1237
489.875;1225
489.938;1218
490.000;1225
490.063;1215
490.125;1218
490.188;1218
490.250;1213
490.313;1215
490.375;1220
490.438;1210
490.500;1210
490.563;1206
490.625;1203
490.688;1210
490.750;1210
490.813;1213
490.875;1213
490.938;1218
491.000;1218
491.063;1213
491.125;1203
491.188;1208
491.250;1208
491.313;1215
491.375;1218
491.438;1240
491.500;1259
491.563;1267
491.625;1276
491.688;1291
491.750;1296
491.813;1274
491.875;1313
491.938;1330
492.000;1352
492.063;1357
492.125;1303
492.188;1298
492.250;1323
492.313;1442
492.375;1481
492.438;1506
492.500;1523
492.563;1535
492.625;1450
492.688;1442
492.750;1464
492.813;1464
492.875;1464
492.938;1462
493.000;1464
493.063;1450
493.125;1445
493.188;1452
493.250;1462
493.313;1474
493.375;1474
493.438;1481
493.500;1494
493.563;1518
493.625;1528
493.688;1540
493.750;1557
493.813;1562
493.875;1564
493.938;1562
494.000;1560
494.063;1569
494.125;1564
494.188;1569
494.250;1564
494.313;1560
494.375;1545
494.438;1538
494.500;1545
494.563;1545
494.625;1533
494.688;1533
494.750;1540
494.813;1547
494.875;1542
494.938;1547
495.000;1564
495.063;1574
495.125;1577
495.188;1582
495.250;1596
495.313;1589
495.375;1586
495.438;1594
495.500;1582
495.563;1567
495.625;1569
495.688;1555
495.750;1535
495.813;1528
495.875;1518
495.938;1501
496.000;1486
496.063;1484
496.125;1479
496.188;1472
496.250;1459
496.313;1450
496.375;1445
496.438;1435
496.500;1435
496.563;1435
496.625;1442
496.688;1447
496.750;1457
496.813;1464
496.875;1464
496.938;1484
497.000;1489
497.063;1491
497.125;1499
497.188;1503
497.250;1501
497.313;1496
497.375;1516
497.438;1525
497.500;1530
497.563;1540
497.625;1542
497.688;1557
497.750;1555
497.813;1547
497.875;1542
497.938;1533
498.000;1523
498.063;1511
498.125;1513
498.188;1499
498.250;1496
498.313;1494
498.375;1491
498.438;1474
498.500;1474
498.563;1462
498.625;1457
498.688;1440
498.750;1398
498.813;1381
498.875;1350
498.938;1333
499.000;1311
499.063;1303
499.125;1313
499.188;1340
499.250;1352
499.313;1396
499.375;1433
499.438;1455
499.500;1467
499.563;1491
499.625;1513
499.688;1530
499.750;1545
499.813;1562
499.875;1557
499.938;1552
500.000;1540
500.063;1542
500.125;1525
500.188;1533
500.250;1523
500.313;1525
500.375;1523
500.438;1520
500.500;1523
500.563;1518
500.625;1511
500.688;1513
500.750;1513
500.813;1496
500.875;1494
500.938;1484
501.000;1477
501.063;1464
501.125;1452
501.188;1442
501.250;1435
501.313;1430
501.375;1433
501.438;1440
501.500;1450
501.563;1459
501.625;1445
501.688;1447
501.750;1437
501.813;1420
501.875;1403
501.938;1367
502.000;1308
502.063;1274
502.125;1230
502.188;1220
502.250;1215
502.313;1213
502.375;1218
502.438;1225
502.500;1228
502.563;1232
502.625;1240
502.688;1242
502.750;1242
502.813;1240
502.875;1232
502.938;1237
503.000;1230
503.063;1225
503.125;1215
503.188;1218
503.250;1218
503.313;1220
503.375;1223
503.438;1213
503.500;1213
503.563;1215
503.625;1215
503.688;1213
503.750;1220
503.813;1210
503.875;1218
503.938;1215
504.000;1208
504.063;1228
504.125;1259
504.188;1291
504.250;1315
504.313;1323
504.375;1315
504.438;1308
504.500;1308
504.563;1306
504.625;1293
504.688;1289
504.750;1262
504.813;1269
504.875;1254
504.938;1254
505.000;1252
505.063;1247
505.125;1252
505.188;1264
505.250;1274
505.313;1274
505.375;1274
505.438;1281
505.500;1284
505.563;1298
505.625;1298
505.688;1298
505.750;1306
505.813;1306
505.875;1303
505.938;1291
506.000;1293
506.063;1284
506.125;1276
506.188;1269
506.250;1245
506.313;1252
506.375;1247
506.438;1245
506.500;1250
506.563;1257
506.625;1259
506.688;1252
506.750;1264
506.813;1279
506.875;1291
506.938;1293
507.000;1301
507.063;1298
507.125;1308
507.188;1306
507.250;1328
507.313;1350
507.375;1357
507.438;1374
507.500;1367
507.563;1394
507.625;1398
507.688;1403
507.750;1396
507.813;1403
507.875;1396
507.938;1408
508.000;1408
508.063;1406
508.125;1406
508.188;1391
508.250;1398
508.313;1391
508.375;1374
508.438;1364
508.500;1367
508.563;1367
508.625;1364
508.688;1433
508.750;1489
508.813;1542
508.875;1501
508.938;1459
509.000;1452
509.063;1398
509.125;1391
509.188;1384
509.250;1401
509.313;1403
509.375;1398
509.438;1413
509.500;1386
509.563;1381
509.625;1372
509.688;1364
509.750;1359
509.813;1362
509.875;1350
509.938;1352
510.000;1345
510.063;1340
510.125;1320
510.188;1325
510.250;1313
510.313;1303
510.375;1289
510.438;1279
510.500;1264
510.563;1257
510.625;1257
510.688;1257
510.750;1245
510.813;1252
510.875;1250
510.938;1245
511.000;1254
511.063;1259
511.125;1259
511.188;1257
511.250;1264
511.313;1267
511.375;1262
511.438;1257
511.500;1262
511.563;1250
511.625;1257
511.688;1262
511.750;1254
511.813;1267
511.875;1257
511.938;1252
512.000;1237
512.063;1235
512.125;1242
512.188;1235
512.250;1220
512.313;1220
512.375;1220
512.438;1220
512.500;1220
512.563;1215
512.625;1223
512.688;1223
512.750;1203
512.813;1198
512.875;1193
512.938;1206
513.000;1193
513.063;1188
513.125;1193
513.188;1193
513.250;1193
513.313;1220
513.375;1232
513.438;1235
513.500;1252
513.563;1267
513.625;1279
513.688;1293
513.750;1306
513.813;1330
513.875;1328
513.938;1337
514.000;1325
514.063;1323
514.125;1320
514.188;1313
514.250;1308
514.313;1308
514.375;1306
514.438;1303
514.500;1303
514.563;1301
514.625;1301
514.688;1296
514.750;1289
514.813;1291
514.875;1281
514.938;1276
515.000;1262
515.063;1257
515.125;1245
515.188;1242
515.250;1247
515.313;1242
515.375;1235
515.438;1237
515.500;1242
515.563;1230
515.625;1232
515.688;1225
515.750;1218
515.813;1225
515.875;1206
515.938;1201
516.000;1186
516.063;1176
516.125;1186
516.188;1179
516.250;1179
516.313;1181
516.375;1181
516.438;1176
516.500;1174
516.563;1184
516.625;1184
516.688;1169
516.750;1171
516.813;1176
516.875;1174
516.938;1181
517.000;1181
517.063;1171
517.125;1179
517.188;1181
517.250;1181
517.313;1174
517.375;1174
517.438;1169
517.500;1181
517.563;1174
517.625;1171
517.688;1174
517.750;1171
517.813;1169
517.875;1179
517.938;1174
518.000;1184
518.063;1284
518.125;1379
518.188;1455
518.250;1499
518.313;1506
518.375;1523
518.438;1513
518.500;1511
518.563;1506
518.625;1494
518.688;1486
518.750;1469
518.813;1464
518.875;1459
518.938;1457
519.000;1459
519.063;1472
519.125;1484
519.188;1503
519.250;1508
519.313;1523
519.375;1528
519.438;1535
519.500;1540
519.563;1547
519.625;1564
519.688;1569
519.750;1564
519.813;1574
519.875;1567
519.938;1560
520.000;1550
520.063;1523
520.125;1506
520.188;1484
520.250;1464
520.313;1437
520.375;1411
520.438;1391
520.500;1381
520.563;1376
520.625;1394
520.688;1418
520.750;1445
520.813;1457
520.875;1479
520.938;1486
521.000;1481
521.063;1491
521.125;1496
521.188;1520
521.250;1542
521.313;1555
521.375;1579
521.438;1599
521.500;1601
521.563;1618
521.625;1625
521.688;1630
521.750;1633
521.813;1640
521.875;1647
521.938;1660
522.000;1652
522.063;1650
522.125;1650
522.188;1640
522.250;1623
522.313;1618
522.375;1606
522.438;1594
522.500;1577
522.563;1567
522.625;1562
522.688;1557
522.750;1560
522.813;1562
522.875;1557
522.938;1569
523.000;1562
523.063;1572
523.125;1560
523.188;1567
523.250;1560
523.313;1557
523.375;1555
523.438;1542
523.500;1542
523.563;1535
523.625;1525
523.688;1525
523.750;1518
523.813;1525
523.875;1533
523.938;1525
524.000;1538
524.063;1540
524.125;1538
524.188;1530
524.250;1516
524.313;1499
524.375;1489
524.438;1479
524.500;1474
524.563;1459
524.625;1447
524.688;1430
524.750;1413
524.813;1411
524.875;1401
524.938;1401
525.000;1416
525.063;1433
525.125;1430
525.188;1452
525.250;1464
525.313;1447
525.375;1450
525.438;1437
525.500;1435
525.563;1423
525.625;1411
525.688;1398
525.750;1389
525.813;1389
525.875;1376
525.938;1359
526.000;1315
526.063;1296
526.125;1271
526.188;1267
526.250;1254
526.313;1262
526.375;1257
526.438;1247
526.500;1250
526.563;1242
526.625;1230
526.688;1220
526.750;1215
526.813;1206
526.875;1196
526.938;1193
527.000;1184
527.063;1176
527.125;1171
527.188;1174
527.250;1179
527.313;1181
527.375;1196
527.438;1198
527.500;1198
527.563;1210
527.625;1208
527.688;1223
527.750;1223
527.813;1230
527.875;1237
527.938;1254
528.000;1259
528.063;1271
528.125;1284
528.188;1279
528.250;1276
528.313;1281
528.375;1291
528.438;1289
528.500;1296
528.563;1296
528.625;1296
528.688;1306
528.750;1293
528.813;1289
528.875;1281
528.938;1276
529.000;1276
529.063;1269
529.125;1257
529.188;1257
529.250;1245
529.313;1250
529.375;1245
529.438;1257
529.500;1250
529.563;1254
529.625;1254
529.688;1254
529.750;1247
529.813;1247
529.875;1254
529.938;1247
530.000;1235
530.063;1228
530.125;1220
530.188;1210
530.250;1201
530.313;1201
530.375;1193
530.438;1201
530.500;1203
530.563;1210
530.625;1208
530.688;1215
530.750;1232
530.813;1357
530.875;1396
530.938;1457
531.000;1394
531.063;1350
531.125;1328
531.188;1247
531.250;1215
531.313;1196
531.375;1203
531.438;1201
531.500;1198
531.563;1208
531.625;1198
531.688;1210
531.750;1208
531.813;1218
531.875;1208
531.938;1193
532.000;1198
532.063;1262
532.125;1315
532.188;1362
532.250;1384
532.313;1411
532.375;1408
532.438;1406
532.500;1411
532.563;1406
532.625;1381
532.688;1381
532.750;1367
532.813;1357
532.875;1350
532.938;1335
533.000;1318
533.063;1318
533.125;1308
533.188;1320
533.250;1320
533.313;1323
533.375;1325
533.438;1347
533.500;1352
533.563;1379
533.625;1381
533.688;1391
533.750;1401
533.813;1406
533.875;1406
533.938;1406
534.000;1403
534.063;1394
534.125;1374
534.188;1357
534.250;1328
534.313;1303
534.375;1274
534.438;1259
534.500;1242
534.563;1252
534.625;1284
534.688;1313
534.750;1342
534.813;1369
534.875;1396
534.938;1420
535.000;1445
535.063;1474
535.125;1489
535.188;1503
535.250;1533
535.313;1545
535.375;1567
535.438;1582
535.500;1589
535.563;1608
535.625;1608
535.688;1625
535.750;1643
535.813;1647
535.875;1660
535.938;1669
536.000;1672
536.063;1672
536.125;1667
536.188;1669
536.250;1669
536.313;1660
536.375;1650
536.438;1638
536.500;1625
536.563;1625
536.625;1623
536.688;1606
536.750;1606
536.813;1613
536.875;1608
536.938;1608
537.000;1608
537.063;1596
537.125;1594
537.188;1582
537.250;1567
537.313;1540
537.375;1520
537.438;1501
537.500;1477
537.563;1442
537.625;1423
537.688;1396
537.750;1386
537.813;1391
537.875;1386
537.938;1401
538.000;1398
538.063;1401
538.125;1396
538.188;1386
538.250;1379
538.313;1379
538.375;1367
538.438;1350
538.500;1350
538.563;1345
538.625;1335
538.688;1330
538.750;1335
538.813;1350
538.875;1372
538.938;1379
539.000;1401
539.063;1403
539.125;1413
539.188;1430
539.250;1435
539.313;1437
539.375;1445
539.438;1455
539.500;1447
539.563;1457
539.625;1455
539.688;1447
539.750;1450
539.813;1455
539.875;1457
539.938;1469
540.000;1474
540.063;1477
540.125;1484
540.188;1494
540.250;1494
540.313;1496
540.375;1486
540.438;1484
540.500;1467
540.563;1459
540.625;1435
540.688;1425
540.750;1408
540.813;1379
540.875;1345
540.938;1303
541.000;1264
541.063;1240
541.125;1213
541.188;1220
541.250;1250
541.313;1281
541.375;1306
541.438;1337
541.500;1369
541.563;1401
541.625;1423
541.688;1445
541.750;1479
541.813;1508
541.875;1589
541.938;1611
542.000;1662
542.063;1630
542.125;1630
542.188;1618
542.250;1623
542.313;1628
542.375;1633
542.438;1640
542.500;1650
542.563;1660
542.625;1657
542.688;1665
542.750;1667
542.813;1660
542.875;1662
542.938;1643
543.000;1633
543.063;1623
543.125;1606
543.188;1594
543.250;1572
543.313;1567
543.375;1569
543.438;1567
543.500;1562
543.563;1557
543.625;1560
543.688;1552
543.750;1542
543.813;1542
543.875;1518
543.938;1508
544.000;1491
544.063;1462
544.125;1445
544.188;1423
544.250;1386
544.313;1362
544.375;1362
544.438;1347
544.500;1354
544.563;1364
544.625;1367
544.688;1364
544.750;1372
544.813;1372
544.875;1384
544.938;1367
545.000;1364
545.063;1362
545.125;1352
545.188;1362
545.250;1352
545.313;1354
545.375;1347
545.438;1347
545.500;1337
545.563;1337
545.625;1350
545.688;1354
545.750;1359
545.813;1374
545.875;1374
545.938;1386
546.000;1389
546.063;1516
546.125;1577
546.188;1645
546.250;1699
546.313;1713
546.375;1726
546.438;1750
546.500;1760
546.563;1767
546.625;1777
546.688;1794
546.750;1813
546.813;1823
546.875;1840
546.938;1838
547.000;1838
547.063;1865
547.125;1857
547.188;1872
547.250;1889
547.313;1892
547.375;1909
547.438;1909
547.500;1921
547.563;1921
547.625;1921
547.688;1921
547.750;1911
547.813;1911
547.875;1896
547.938;1882
548.000;1862
548.063;1845
548.125;1813
548.188;1779
548.250;1740
548.313;1687
548.375;1616
548.438;1560
548.500;1513
548.563;1518
548.625;1560
548.688;1616
548.750;1657
548.813;1694
548.875;1730
548.938;1757
549.000;1782
549.063;1804
549.125;1813
549.188;1850
549.250;1855
549.313;1877
549.375;1894
549.438;1899
549.500;1916
549.563;1918
549.625;1933
549.688;1936
549.750;1943
549.813;1945
549.875;1948
549.938;1960
550.000;1970
550.063;1965
550.125;1972
550.188;1958
550.250;1948
550.313;1943
550.375;1921
550.438;1914
550.500;1904
550.563;1882
550.625;1875
550.688;1870
550.750;1865
550.813;1877
550.875;1870
550.938;1867
551.000;1872
551.063;1870
551.125;1862
551.188;1860
551.250;1857
551.313;1845
551.375;1821
551.438;1804
551.500;1784
551.563;1760
551.625;1740
551.688;1730
551.750;1723
551.813;1713
551.875;1718
551.938;1735
552.000;1740
552.063;1755
552.125;1755
552.188;1748
552.250;1748
552.313;1735
552.375;1726
552.438;1708
552.500;1699
552.563;1706
552.625;1701
552.688;1699
552.750;1689
552.813;1677
552.875;1694
552.938;1738
553.000;1745
553.063;1767
553.125;1748
553.188;1743
553.250;1748
553.313;1745
553.375;1733
553.438;1733
553.500;1730
553.563;1730
553.625;1726
553.688;1726
553.750;1723
553.813;1723
553.875;1716
553.938;1728
554.000;1733
554.063;1733
554.125;1735
554.188;1743
554.250;1748
554.313;1748
554.375;1735
554.438;1723
554.500;1708
554.563;1689
554.625;1672
554.688;1657
554.750;1625
554.813;1596
554.875;1567
554.938;1540
555.000;1503
555.063;1484
555.125;1474
555.188;1462
555.250;1479
555.313;1496
555.375;1513
555.438;1530
555.500;1552
555.563;1567
555.625;1586
555.688;1608
555.750;1623
555.813;1645
555.875;1655
555.938;1669
556.000;1677
556.063;1706
556.125;1711
556.188;1718
556.250;1716
556.313;1728
556.375;1743
556.438;1745
556.500;1752
556.563;1762
556.625;1755
556.688;1755
556.750;1752
556.813;1748
556.875;1743
556.938;1740
557.000;1723
557.063;1713
557.125;1704
557.188;1694
557.250;1689
557.313;1674
557.375;1672
557.438;1672
557.500;1674
557.563;1665
557.625;1660
557.688;1667
557.750;1669
557.813;1665
557.875;1662
557.938;1657
558.000;1640
558.063;1643
558.125;1625
558.188;1621
558.250;1618
558.313;1623
558.375;1621
558.438;1611
558.500;1621
558.563;1618
558.625;1625
558.688;1628
558.750;1630
558.813;1638
558.875;1638
558.938;1630
559.000;1633
559.063;1638
559.125;1647
559.188;1638
559.250;1643
559.313;1657
559.375;1647
559.438;1655
559.500;1655
559.563;1660
559.625;1657
559.688;1667
559.750;1672
559.813;1669
559.875;1679
559.938;1682
560.000;1679
560.063;1726
560.125;1779
560.188;1833
560.250;1855
560.313;1867
560.375;1882
560.438;1889
560.500;1904
560.563;1918
560.625;1921
560.688;1945
560.750;1945
560.813;1948
560.875;1962
560.938;1967
561.000;1972
561.063;1979
561.125;1979
561.188;1989
561.250;1989
561.313;1999
561.375;2014
561.438;2021
561.500;2036
561.563;2033
561.625;2036
561.688;2021
561.750;2031
561.813;2021
561.875;2019
561.938;2001
562.000;1984
562.063;1967
562.125;1940
562.188;1928
562.250;1896
562.313;1862
562.375;1826
562.438;1813
562.500;1801
562.563;1794
562.625;1796
562.688;1826
562.750;1870
562.813;1887
562.875;1911
562.938;1940
563.000;1972
563.063;1984
563.125;2019
563.188;2026
563.250;2058
563.313;2077
563.375;2084
563.438;2111
563.500;2119
563.563;2131
563.625;2143
563.688;2150
563.750;2160
563.813;2175
563.875;2187
563.938;2185
564.000;2192
564.063;2194
564.125;2189
564.188;2182
564.250;2185
564.313;2175
564.375;2155
564.438;2148
564.500;2136
564.563;2121
564.625;2124
564.688;2111
564.750;2104
564.813;2092
564.875;2102
564.938;2102
565.000;2097
565.063;2084
565.125;2077
565.188;2072
565.250;2058
565.313;2038
565.375;2019
565.438;1984
565.500;1970
565.563;1940
565.625;1923
565.688;1901
565.750;1894
565.813;1896
565.875;1887
565.938;1892
566.000;1901
566.063;1896
566.125;1899
566.188;1904
566.250;1896
566.313;1896
566.375;1884
566.438;1865
566.500;1875
566.563;1875
566.625;1875
566.688;1872
566.750;1860
566.813;1870
566.875;1865
566.938;1867
567.000;1872
567.063;1875
567.125;1884
567.188;1879
567.250;1892
567.313;1892
567.375;1889
567.438;1894
567.500;1879
567.563;1882
567.625;1872
567.688;1865
567.750;1853
567.813;1848
567.875;1855
567.938;1848
568.000;1855
568.063;1855
568.125;1855
568.188;1853
568.250;1853
568.313;1845
568.375;1843
568.438;1833
568.500;1831
568.563;1804
568.625;1806
568.688;1799
568.750;1772
568.813;1750
568.875;1752
568.938;1743
569.000;1730
569.063;1713
569.125;1728
569.188;1735
569.250;1723
569.313;1728
569.375;1733
569.438;1730
569.500;1738
569.563;1748
569.625;1755
569.688;1750
569.750;1757
569.813;1760
569.875;1770
569.938;1777
570.000;1784
570.063;1784
570.125;1796
570.188;1799
570.250;1818
570.313;1826
570.375;1818
570.438;1823
570.500;1826
570.563;1828
570.625;1833
570.688;1840
570.750;1848
570.813;1826
570.875;1838
570.938;1833
571.000;1833
571.063;1828
571.125;1816
571.188;1809
571.250;1811
571.313;1813
571.375;1813
571.438;1804
571.500;1813
571.563;1809
571.625;1809
571.688;1811
571.750;1811
571.813;1813
571.875;1799
571.938;1799
572.000;1801
572.063;1801
572.125;1794
572.188;1794
572.250;1794
572.313;1796
572.375;1789
572.438;1804
572.500;1801
572.563;1804
572.625;1806
572.688;1809
572.750;1818
572.813;1813
572.875;1818
572.938;1811
573.000;1811
573.063;1828
573.125;1818
573.188;1818
573.250;1828
573.313;1821
573.375;1811
573.438;1823
573.500;1818
573.563;1821
573.625;1826
573.688;1828
573.750;1838
573.813;1840
573.875;1833
573.938;1848
574.000;1840
574.063;1867
574.125;1901
574.188;1950
574.250;1984
574.313;1984
574.375;1999
574.438;1999
574.500;2004
574.563;2019
574.625;2028
574.688;2038
574.750;2048
574.813;2065
574.875;2082
574.938;2089
575.000;2094
575.063;2104
575.125;2124
575.188;2121
575.250;2126
575.313;2141
575.375;2150
575.438;2155
575.500;2163
575.563;2158
575.625;2158
575.688;2150
575.750;2153
575.813;2145
575.875;2131
575.938;2119
576.000;2106
576.063;2092
576.125;2070
576.188;2038
576.250;2004
576.313;1975
576.375;1958
576.438;1933
576.500;1916
576.563;1916
576.625;1931
576.688;1943
576.750;1970
576.813;1987
576.875;2006
576.938;2023
577.000;2048
577.063;2055
577.125;2080
577.188;2092
577.250;2097
577.313;2124
577.375;2136
577.438;2160
577.500;2165
577.563;2175
577.625;2180
577.688;2197
577.750;2199
577.813;2211
577.875;2219
577.938;2224
578.000;2231
578.063;2231
578.125;2231
578.188;2233
578.250;2233
578.313;2226
578.375;2221
578.438;2211
578.500;2204
578.563;2197
578.625;2189
578.688;2187
578.750;2187
578.813;2189
578.875;2192
578.938;2185
579.000;2185
579.063;2189
579.125;2180
579.188;2175
579.250;2167
579.313;2155
579.375;2143
579.438;2124
579.500;2102
579.563;2084
579.625;2055
579.688;2041
579.750;2028
579.813;2031
579.875;2031
579.938;2041
580.000;2048
580.063;2055
580.125;2065
580.188;2053
580.250;2058
580.313;2058
580.375;2045
580.438;2033
580.500;2038
580.563;2023
580.625;2023
580.688;2011
580.750;2011
580.813;2014
580.875;2006
580.938;2006
581.000;1999
581.063;2006
581.125;2011
581.188;2016
581.250;2023
581.313;2021
581.375;2028
581.438;2006
581.500;1994
581.563;1979
581.625;1962
581.688;1931
581.750;1918
581.813;1894
581.875;1879
581.938;1865
582.000;1853
582.063;1838
582.125;1818
582.188;1811
582.250;1796
582.313;1801
582.375;1799
582.438;1796
582.500;1801
582.563;1794
582.625;1791
582.688;1782
582.750;1787
582.813;1782
582.875;1779
582.938;1777
583.000;1770
583.063;1762
583.125;1767
583.188;1757
583.250;1755
583.313;1752
583.375;1757
583.438;1750
583.500;1750
583.563;1745
583.625;1743
583.688;1743
583.750;1740
583.813;1730
583.875;1735
583.938;1733
584.000;1735
584.063;1730
584.125;1721
584.188;1728
584.250;1728
584.313;1708
584.375;1716
584.438;1716
584.500;1713
584.563;1713
584.625;1701
584.688;1711
584.750;1704
584.813;1704
584.875;1699
584.938;1699
585.000;1694
585.063;1691
585.125;1701
585.188;1694
585.250;1696
585.313;1684
585.375;1682
585.438;1679
585.500;1691
585.563;1696
585.625;1689
585.688;1682
585.750;1684
585.813;1679
585.875;1687
585.938;1674
586.000;1682
586.063;1679
586.125;1704
586.188;1696
586.250;1704
586.313;1682
586.375;1694
586.438;1691
586.500;1679
586.563;1674
586.625;1689
586.688;1684
586.750;1672
586.813;1677
586.875;1682
586.938;1674
587.000;1677
587.063;1672
587.125;1672
587.188;1679
587.250;1669
587.313;1682
587.375;1674
587.438;1682
587.500;1679
587.563;1684
587.625;1679
587.688;1689
587.750;1672
587.813;1677
587.875;1677
587.938;1677
588.000;1679
588.063;1679
588.125;1718
588.188;1745
588.250;1762
588.313;1784
588.375;1806
588.438;1818
588.500;1831
588.563;1833
588.625;1845
588.688;1857
588.750;1872
588.813;1877
588.875;1892
588.938;1901
589.000;1911
589.063;1906
589.125;1916
589.188;1933
589.250;1931
589.313;1940
589.375;1955
589.438;1970
589.500;1967
589.563;1984
589.625;1970
589.688;1967
589.750;1979
589.813;1967
589.875;1955
589.938;1943
590.000;1926
590.063;1909
590.125;1889
590.188;1862
590.250;1828
590.313;1804
590.375;1772
590.438;1752
590.500;1735
590.563;1733
590.625;1745
590.688;1762
590.750;1784
590.813;1806
590.875;1826
590.938;1843
591.000;1857
591.063;1879
591.125;1896
591.188;1914
591.250;1931
591.313;1945
591.375;1962
591.438;1967
591.500;1989
591.563;1997
591.625;2009
591.688;2014
591.750;2026
591.813;2033
591.875;2043
591.938;2045
592.000;2050
592.063;2058
592.125;2062
592.188;2062
592.250;2062
592.313;2058
592.375;2048
592.438;2043
592.500;2021
592.563;2028
592.625;2021
592.688;2019
592.750;2023
592.813;2031
592.875;2031
592.938;2028
593.000;2031
593.063;2036
593.125;2026
593.188;2031
593.250;2019
593.313;2014
593.375;1999
593.438;1979
593.500;1955
593.563;1926
593.625;1901
593.688;1889
593.750;1870
593.813;1872
593.875;1870
593.938;1884
594.000;1889
594.063;1909
594.125;1909
594.188;1909
594.250;1906
594.313;1901
594.375;1892
594.438;1889
594.500;1877
594.563;1875
594.625;1877
594.688;1867
594.750;1865
594.813;1867
594.875;1860
594.938;1855
595.000;1862
595.063;1865
595.125;1875
595.188;1889
595.250;1899
595.313;1901
595.375;1906
595.438;1887
595.500;1882
595.563;1857
595.625;1828
595.688;1813
595.750;1787
595.813;1765
595.875;1740
595.938;1735
596.000;1708
596.063;1694
596.125;1699
596.188;1691
596.250;1691
596.313;1682
596.375;1689
596.438;1674
596.500;1669
596.563;1667
596.625;1662
596.688;1662
596.750;1652
596.813;1638
596.875;1630
596.938;1625
597.000;1606
597.063;1601
597.125;1599
597.188;1606
597.250;1589
597.313;1606
597.375;1596
597.438;1601
597.500;1601
597.563;1604
597.625;1613
597.688;1608
597.750;1613
597.813;1608
597.875;1625
597.938;1628
598.000;1625
598.063;1638
598.125;1640
598.188;1638
598.250;1650
598.313;1662
598.375;1655
598.438;1662
598.500;1662
598.563;1667
598.625;1669
598.688;1672
598.750;1657
598.813;1662
598.875;1665
598.938;1647
599.000;1635
599.063;1621
599.125;1611
599.188;1601
599.250;1599
599.313;1584
599.375;1584
599.438;1582
599.500;1584
599.563;1584
599.625;1582
599.688;1579
599.750;1577
599.813;1569
599.875;1564
599.938;1550
600.000;1557
600.063;1545
600.125;1525
600.188;1516
600.250;1520
600.313;1513
600.375;1503
600.438;1503
600.500;1506
600.563;1516
600.625;1523
600.688;1538
600.750;1542
600.813;1545
600.875;1542
600.938;1552
601.000;1552
601.063;1542
601.125;1542
601.188;1540
601.250;1542
601.313;1542
601.375;1538
601.438;1518
601.500;1518
601.563;1511
601.625;1511
601.688;1501
601.750;1508
601.813;1511
601.875;1503
601.938;1516
602.000;1506
602.063;1508
602.125;1550
602.188;1579
602.250;1618
602.313;1616
602.375;1645
602.438;1660
602.500;1672
602.563;1674
602.625;1699
602.688;1713
602.750;1728
602.813;1745
602.875;1755
602.938;1750
603.000;1770
603.063;1770
603.125;1777
603.188;1779
603.250;1801
603.313;1813
603.375;1823
603.438;1838
603.500;1843
603.563;1850
603.625;1860
603.688;1865
603.750;1857
603.813;1850
603.875;1850
603.938;1833
604.000;1821
604.063;1809
604.125;1782
604.188;1748
604.250;1716
604.313;1687
604.375;1640
604.438;1596
604.500;1562
604.563;1562
604.625;1591
604.688;1628
604.750;1655
604.813;1701
604.875;1738
604.938;1765
605.000;1782
605.063;1809
605.125;1833
605.188;1850
605.250;1875
605.313;1887
605.375;1899
605.438;1911
605.500;1933
605.563;1928
605.625;1945
605.688;1945
605.750;1953
605.813;1965
605.875;1967
605.938;1972
606.000;1972
606.063;1967
606.125;1967
606.188;1958
606.250;1945
606.313;1933
606.375;1923
606.438;1904
606.500;1889
606.563;1865
606.625;1860
606.688;1853
606.750;1838
606.813;1833
606.875;1833
606.938;1828
607.000;1813
607.063;1818
607.125;1809
607.188;1804
607.250;1801
607.313;1777
607.375;1770
607.438;1760
607.500;1735
607.563;1711
607.625;1689
607.688;1674
607.750;1662
607.813;1674
607.875;1679
607.938;1684
608.000;1687
608.063;1701
608.125;1701
608.188;1721
608.250;1755
608.313;1765
608.375;1774
608.438;1740
608.500;1728
608.563;1706
608.625;1689
608.688;1679
608.750;1672
608.813;1657
608.875;1662
608.938;1665
609.000;1669
609.063;1672
609.125;1691
609.188;1704
609.250;1713
609.313;1708
609.375;1716
609.438;1708
609.500;1718
609.563;1699
609.625;1669
609.688;1643
609.750;1611
609.813;1594
609.875;1572
609.938;1560
610.000;1545
610.063;1547
610.125;1545
610.188;1542
610.250;1557
610.313;1569
610.375;1582
610.438;1596
610.500;1599
610.563;1608
610.625;1618
610.688;1623
610.750;1635
610.813;1618
610.875;1621
610.938;1621
611.000;1604
611.063;1596
611.125;1584
611.188;1574
611.250;1574
611.313;1567
611.375;1579
611.438;1569
611.500;1574
611.563;1572
611.625;1569
611.688;1567
611.750;1567
611.813;1564
611.875;1557
611.938;1535
612.000;1528
612.063;1528
612.125;1499
612.188;1484
612.250;1474
612.313;1469
612.375;1455
612.438;1462
612.500;1467
612.563;1464
612.625;1481
612.688;1499
612.750;1501
612.813;1516
612.875;1523
612.938;1540
613.000;1533
613.063;1533
613.125;1533
613.188;1518
613.250;1503
613.313;1486
613.375;1481
613.438;1464
613.500;1445
613.563;1428
613.625;1425
613.688;1416
613.750;1430
613.813;1445
613.875;1462
613.938;1462
614.000;1486
614.063;1535
614.125;1618
614.188;1665
614.250;1694
614.313;1713
614.375;1726
614.438;1748
614.500;1755
614.563;1770
614.625;1791
614.688;1816
614.750;1826
614.813;1848
614.875;1862
614.938;1865
615.000;1860
615.063;1857
615.125;1865
615.188;1857
615.250;1857
615.313;1862
615.375;1850
615.438;1843
615.500;1828
615.563;1806
615.625;1791
615.688;1774
615.750;1774
615.813;1762
615.875;1767
615.938;1760
616.000;1765
616.063;1777
616.125;1794
616.188;1811
616.250;1831
616.313;1840
616.375;1853
616.438;1862
616.500;1877
616.563;1901
616.625;1904
616.688;1923
616.750;1928
616.813;1936
616.875;1926
616.938;1926
617.000;1923
617.063;1923
617.125;1916
617.188;1906
617.250;1916
617.313;1916
617.375;1909
617.438;1916
617.500;1911
617.563;1906
617.625;1901
617.688;1892
617.750;1884
617.813;1877
617.875;1870
617.938;1862
618.000;1850
618.063;1838
618.125;1823
618.188;1801
618.250;1777
618.313;1752
618.375;1721
618.438;1706
618.500;1682
618.563;1662
618.625;1667
618.688;1672
618.750;1684
618.813;1682
618.875;1701
618.938;1711
619.000;1711
619.063;1733
619.125;1740
619.188;1745
619.250;1760
619.313;1770
619.375;1779
619.438;1791
619.500;1787
619.563;1796
619.625;1804
619.688;1809
619.750;1806
619.813;1821
619.875;1818
619.938;1828
620.000;1845
620.063;1855
620.125;1865
620.188;1865
620.250;1867
620.313;1865
620.375;1870
620.438;1862
620.500;1867
620.563;1860
620.625;1872
620.688;1875
620.750;1877
620.813;1879
620.875;1894
620.938;1901
621.000;1901
621.063;1894
621.125;1884
621.188;1875
621.250;1862
621.313;1850
621.375;1833
621.438;1823
621.500;1813
621.563;1801
621.625;1782
621.688;1779
621.750;1765
621.813;1755
621.875;1726
621.938;1682
622.000;1623
622.063;1577
622.125;1545
622.188;1547
622.250;1557
622.313;1567
622.375;1555
622.438;1552
622.500;1569
622.563;1584
622.625;1594
622.688;1616
622.750;1638
622.813;1660
622.875;1665
622.938;1660
623.000;1660
623.063;1657
623.125;1652
623.188;1635
623.250;1638
623.313;1623
623.375;1606
623.438;1594
623.500;1574
623.563;1560
623.625;1547
623.688;1523
623.750;1513
623.813;1508
623.875;1506
623.938;1486
624.000;1484
624.063;1479
624.125;1491
624.188;1511
624.250;1523
624.313;1555
624.375;1564
624.438;1586
624.500;1599
624.563;1616
624.625;1630
624.688;1640
624.750;1645
624.813;1628
624.875;1625
624.938;1616
625.000;1594
625.063;1564
625.125;1547
625.188;1555
625.250;1567
625.313;1574
625.375;1599
625.438;1608
625.500;1625
625.563;1635
625.625;1635
625.688;1633
625.750;1633
625.813;1623
625.875;1599
625.938;1591
626.000;1601
626.063;1608
626.125;1611
626.188;1623
626.250;1640
626.313;1650
626.375;1660
626.438;1660
626.500;1674
626.563;1674
626.625;1696
626.688;1696
626.750;1718
626.813;1740
626.875;1752
626.938;1765
627.000;1779
627.063;1772
627.125;1772
627.188;1757
627.250;1740
627.313;1713
627.375;1694
627.438;1669
627.500;1633
627.563;1599
627.625;1584
627.688;1584
627.750;1599
627.813;1628
627.875;1650
627.938;1674
628.000;1704
628.063;1718
628.125;1745
628.188;1757
628.250;1767
628.313;1762
628.375;1755
628.438;1752
628.500;1740
628.563;1730
628.625;1723
628.688;1704
628.750;1701
628.813;1699
628.875;1701
628.938;1708
629.000;1701
629.063;1699
629.125;1699
629.188;1699
629.250;1694
629.313;1691
629.375;1679
629.438;1672
629.500;1652
629.563;1635
629.625;1625
629.688;1635
629.750;1652
629.813;1665
629.875;1660
629.938;1655
630.000;1625
630.063;1630
630.125;1647
630.188;1672
630.250;1699
630.313;1706
630.375;1770
630.438;1772
630.500;1774
630.563;1760
630.625;1760
630.688;1767
630.750;1772
630.813;1784
630.875;1801
630.938;1818
631.000;1828
631.063;1828
631.125;1831
631.188;1833
631.250;1831
631.313;1821
631.375;1809
631.438;1791
631.500;1777
631.563;1755
631.625;1728
631.688;1708
631.750;1674
631.813;1645
631.875;1635
631.938;1635
632.000;1630
632.063;1647
632.125;1655
632.188;1672
632.250;1684
632.313;1689
632.375;1701
632.438;1706
632.500;1733
632.563;1743
632.625;1762
632.688;1767
632.750;1765
632.813;1757
632.875;1765
632.938;1760
633.000;1767
633.063;1782
633.125;1782
633.188;1782
633.250;1791
633.313;1799
633.375;1789
633.438;1816
633.500;1823
633.563;1811
633.625;1823
633.688;1806
633.750;1806
633.813;1804
633.875;1789
633.938;1767
634.000;1755
634.063;1738
634.125;1730
634.188;1718
634.250;1716
634.313;1704
634.375;1718
634.438;1706
634.500;1721
634.563;1728
634.625;1733
634.688;1740
634.750;1745
634.813;1745
634.875;1745
634.938;1755
635.000;1760
635.063;1748
635.125;1743
635.188;1740
635.250;1730
635.313;1730
635.375;1723
635.438;1711
635.500;1708
635.563;1711
635.625;1704
635.688;1694
635.750;1708
635.813;1716
635.875;1716
635.938;1723
636.000;1721
636.063;1730
636.125;1735
636.188;1743
636.250;1745
636.313;1748
636.375;1750
636.438;1750
636.500;1755
636.563;1757
636.625;1752
636.688;1755
636.750;1752
636.813;1748
636.875;1740
636.938;1726
637.000;1713
637.063;1711
637.125;1689
637.188;1677
637.250;1667
637.313;1657
637.375;1657
637.438;1638
637.500;1633
637.563;1623
637.625;1611
637.688;1601
637.750;1591
637.813;1584
637.875;1574
637.938;1574
638.000;1577
638.063;1579
638.125;1586
638.188;1613
638.250;1635
638.313;1667
638.375;1687
638.438;1711
638.500;1718
638.563;1743
638.625;1740
638.688;1755
638.750;1757
638.813;1748
638.875;1745
638.938;1735
639.000;1723
639.063;1689
639.125;1667
639.188;1645
639.250;1630
639.313;1623
639.375;1628
639.438;1643
639.500;1660
639.563;1691
639.625;1704
639.688;1716
639.750;1738
639.813;1735
639.875;1740
639.938;1738
640.000;1740
640.063;1745
640.125;1743
640.188;1740
640.250;1740
640.313;1745
640.375;1743
640.438;1745
640.500;1760
640.563;1760
640.625;1767
640.688;1772
640.750;1787
640.813;1794
640.875;1796
640.938;1809
641.000;1809
641.063;1796
641.125;1782
641.188;1779
641.250;1774
641.313;1755
641.375;1730
641.438;1723
641.500;1726
641.563;1738
641.625;1750
641.688;1755
641.750;1784
641.813;1813
641.875;1835
641.938;1840
642.000;1862
642.063;1875
642.125;1889
642.188;1909
642.250;1923
642.313;1936
642.375;1926
642.438;1921
642.500;1918
642.563;1916
642.625;1916
642.688;1904
642.750;1884
642.813;1887
642.875;1879
642.938;1875
643.000;1875
643.063;1855
643.125;1855
643.188;1840
643.250;1833
643.313;1823
643.375;1809
643.438;1806
643.500;1801
643.563;1789
643.625;1765
643.688;1774
643.750;1765
643.813;1762
643.875;1770
643.938;1770
644.000;1774
644.063;1777
644.125;1782
644.188;1784
644.250;1784
644.313;1791
644.375;1779
644.438;1787
644.500;1789
644.563;1799
644.625;1813
644.688;1821
644.750;1835
644.813;1855
644.875;1860
644.938;1870
645.000;1875
645.063;1879
645.125;1882
645.188;1887
645.250;1892
645.313;1887
645.375;1892
645.438;1870
645.500;1860
645.563;1850
645.625;1818
645.688;1789
645.750;1757
645.813;1735
645.875;1706
645.938;1682
646.000;1667
646.063;1660
646.125;1667
646.188;1677
646.250;1691
646.313;1699
646.375;1706
646.438;1718
646.500;1733
646.563;1738
646.625;1752
646.688;1762
646.750;1772
646.813;1770
646.875;1777
646.938;1770
647.000;1770
647.063;1752
647.125;1752
647.188;1750
647.250;1745
647.313;1748
647.375;1745
647.438;1755
647.500;1777
647.563;1787
647.625;1789
647.688;1774
647.750;1760
647.813;1733
647.875;1687
647.938;1638
648.000;1596
648.063;1547
648.125;1533
648.188;1540
648.250;1589
648.313;1640
648.375;1682
648.438;1691
648.500;1716
648.563;1713
648.625;1716
648.688;1689
648.750;1665
648.813;1657
648.875;1630
648.938;1633
649.000;1635
649.063;1630
649.125;1640
649.188;1633
649.250;1596
649.313;1574
649.375;1564
649.438;1584
649.500;1635
649.563;1684
649.625;1752
649.688;1774
649.750;1796
649.813;1804
649.875;1818
649.938;1816
650.000;1813
650.063;1811
650.125;1806
650.188;1806
650.250;1804
650.313;1804
650.375;1799
650.438;1787
650.500;1772
650.563;1743
650.625;1721
650.688;1694
650.750;1674
650.813;1667
650.875;1691
650.938;1704
651.000;1738
651.063;1760
651.125;1787
651.188;1811
651.250;1818
651.313;1821
651.375;1826
651.438;1816
651.500;1821
651.563;1811
651.625;1804
651.688;1794
651.750;1801
651.813;1804
651.875;1804
651.938;1806
652.000;1828
652.063;1821
652.125;1826
652.188;1843
652.250;1845
652.313;1853
652.375;1860
652.438;1872
652.500;1894
652.563;1896
652.625;1899
652.688;1894
652.750;1899
652.813;1884
652.875;1892
652.938;1887
653.000;1887
653.063;1867
653.125;1862
653.188;1848
653.250;1833
653.313;1838
653.375;1843
653.438;1843
653.500;1860
653.563;1867
653.625;1862
653.688;1855
653.750;1850
653.813;1838
653.875;1838
653.938;1813
654.000;1801
654.063;1801
654.125;1784
654.188;1784
654.250;1774
654.313;1789
654.375;1799
654.438;1806
654.500;1826
654.563;1843
654.625;1862
654.688;1865
654.750;1872
654.813;1870
654.875;1877
654.938;1875
655.000;1887
655.063;1887
655.125;1884
655.188;1887
655.250;1882
655.313;1889
655.375;1887
655.438;1887
655.500;1894
655.563;1887
655.625;1896
655.688;1906
655.750;1916
655.813;1921
655.875;1918
655.938;1921
656.000;1923
656.063;1928
656.125;1928
656.188;1916
656.250;1923
656.313;1911
656.375;1894
656.438;1892
656.500;1887
656.563;1887
656.625;1884
656.688;1904
656.750;1901
656.813;1896
656.875;1889
656.938;1862
657.000;1850
657.063;1828
657.125;1816
657.188;1809
657.250;1804
657.313;1816
657.375;1828
657.438;1826
657.500;1840
657.563;1840
657.625;1835
657.688;1855
657.750;1850
657.813;1862
657.875;1867
657.938;1872
658.000;1875
658.063;1872
658.125;1877
658.188;1860
658.250;1860
658.313;1843
658.375;1840
658.438;1840
658.500;1826
658.563;1826
658.625;1828
658.688;1828
658.750;1840
658.813;1879
658.875;1904
658.938;1928
659.000;1948
659.063;1953
659.125;1970
659.188;1970
659.250;1965
659.313;1967
659.375;1962
659.438;1943
659.500;1936
659.563;1911
659.625;1892
659.688;1879
659.750;1862
659.813;1857
659.875;1850
659.938;1860
660.000;1855
660.063;1879
660.125;1887
660.188;1894
660.250;1899
660.313;1906
660.375;1916
660.438;1921
660.500;1940
660.563;1953
660.625;1960
660.688;1962
660.750;1979
660.813;1992
660.875;1989
660.938;1997
661.000;1989
661.063;1982
661.125;1979
661.188;1977
661.250;1965
661.313;1958
661.375;1967
661.438;1979
661.500;1992
661.563;1994
661.625;2014
661.688;2001
661.750;1989
661.813;1945
661.875;1906
661.938;1843
662.000;1794
662.063;1733
662.125;1718
662.188;1718
662.250;1765
662.313;1818
662.375;1853
662.438;1875
662.500;1889
662.563;1879
662.625;1879
662.688;1843
662.750;1826
662.813;1801
662.875;1789
662.938;1782
663.000;1782
663.063;1796
663.125;1789
663.188;1779
663.250;1765
663.313;1743
663.375;1728
663.438;1740
663.500;1770
663.563;1833
663.625;1875
663.688;1918
663.750;1931
663.813;1945
663.875;1950
663.938;1958
664.000;1955
664.063;1953
664.125;1938
664.188;1943
664.250;1928
664.313;1931
664.375;1933
664.438;1926
664.500;1923
664.563;1914
664.625;1889
664.688;1877
664.750;1877
664.813;1870
664.875;1877
664.938;1882
665.000;1911
665.063;1931
665.125;1950
665.188;1958
665.250;1975
665.313;1975
665.375;1987
665.438;1989
665.500;1989
665.563;1982
665.625;1987
665.688;1982
665.750;1987
665.813;2001
665.875;2021
665.938;2023
666.000;2033
666.063;2053
666.125;2050
666.188;2062
666.250;2060
666.313;2075
666.375;2072
666.438;2087
666.500;2099
666.563;2102
666.625;2104
666.688;2106
666.750;2104
666.813;2099
666.875;2094
666.938;2082
667.000;2087
667.063;2075
667.125;2058
667.188;2045
667.250;2023
667.313;2016
667.375;2009
667.438;2031
667.500;2026
667.563;2019
667.625;2016
667.688;2004
667.750;2009
667.813;1999
667.875;1989
667.938;1972
668.000;1950
668.063;1948
668.125;1943
668.188;1936
668.250;1931
668.313;1943
668.375;1940
668.438;1960
668.500;1979
668.563;1994
668.625;2011
668.688;2021
668.750;2023
668.813;2019
668.875;2023
668.938;2021
669.000;2031
669.063;2023
669.125;2019
669.188;2011
669.250;2011
669.313;1999
669.375;1982
669.438;1965
669.500;1936
669.563;1928
669.625;1904
669.688;1887
669.750;1860
669.813;1821
669.875;1794
669.938;1765
670.000;1752
670.063;1735
670.125;1735
670.188;1730
670.250;1760
670.313;1801
670.375;1833
670.438;1848
670.500;1855
670.563;1865
670.625;1867
670.688;1870
670.750;1870
670.813;1879
670.875;1892
670.938;1901
671.000;1918
671.063;1940
671.125;1965
671.188;1977
671.250;1999
671.313;2011
671.375;2026
671.438;2026
671.500;2036
671.563;2033
671.625;2023
671.688;2021
671.750;1999
671.813;1987
671.875;1975
671.938;1940
672.000;1916
672.063;1875
672.125;1843
672.188;1823
672.250;1813
672.313;1809
672.375;1821
672.438;1833
672.500;1845
672.563;1850
672.625;1882
672.688;1926
672.750;1972
672.813;2006
672.875;2041
672.938;2070
673.000;2089
673.063;2097
673.125;2109
673.188;2106
673.250;2111
673.313;2094
673.375;2092
673.438;2082
673.500;2062
673.563;2041
673.625;2026
673.688;2006
673.750;1997
673.813;1987
673.875;1984
673.938;1997
674.000;2004
674.063;2026
674.125;2028
674.188;2043
674.250;2038
674.313;2036
674.375;2033
674.438;2028
674.500;2023
674.563;2014
674.625;2009
674.688;2009
674.750;2011
674.813;2009
674.875;2004
674.938;2001
675.000;1989
675.063;1989
675.125;1987
675.188;1970
675.250;1967
675.313;1945
675.375;1955
675.438;1950
675.500;1948
675.563;1948
675.625;1955
675.688;1962
675.750;1977
675.813;1972
675.875;1967
675.938;1962
676.000;1953
676.063;1953
676.125;1926
676.188;1906
676.250;1892
676.313;1867
676.375;1848
676.438;1835
676.500;1826
676.563;1796
676.625;1787
676.688;1765
676.750;1755
676.813;1772
676.875;1784
676.938;1811
677.000;1826
677.063;1828
677.125;1821
677.188;1809
677.250;1806
677.313;1782
677.375;1757
677.438;1760
677.500;1784
677.563;1809
677.625;1840
677.688;1862
677.750;1857
677.813;1853
677.875;1813
677.938;1799
678.000;1770
678.063;1743
678.125;1740
678.188;1767
678.250;1843
678.313;1923
678.375;1967
678.438;1999
678.500;2033
678.563;2048
678.625;2050
678.688;2048
678.750;2058
678.813;2062
678.875;2065
678.938;2060
679.000;2062
679.063;2053
679.125;2053
679.188;2028
679.250;2021
679.313;2014
679.375;2001
679.438;1992
679.500;1992
679.563;1982
679.625;1994
679.688;1982
679.750;1982
679.813;1987
679.875;1982
679.938;1979
680.000;1972
680.063;1972
680.125;1967
680.188;1962
680.250;1953
680.313;1960
680.375;1953
680.438;1955
680.500;1953
680.563;1938
680.625;1928
680.688;1923
680.750;1909
680.813;1899
680.875;1887
680.938;1872
681.000;1857
681.063;1855
681.125;1862
681.188;1882
681.250;1894
681.313;1906
681.375;1921
681.438;1948
681.500;1962
681.563;1958
681.625;1967
681.688;1962
681.750;1955
681.813;1943
681.875;1955
681.938;1950
682.000;1960
682.063;1960
682.125;1948
682.188;1938
682.250;1933
682.313;1914
682.375;1899
682.438;1887
682.500;1867
682.563;1872
682.625;1857
682.688;1865
682.750;1875
682.813;1855
682.875;1855
682.938;1840
683.000;1828
683.063;1818
683.125;1804
683.188;1791
683.250;1799
683.313;1789
683.375;1777
683.438;1784
683.500;1784
683.563;1784
683.625;1791
683.688;1809
683.750;1823
683.813;1845
683.875;1843
683.938;1855
684.000;1865
684.063;1855
684.125;1862
684.188;1850
684.250;1838
684.313;1818
684.375;1813
684.438;1806
684.500;1796
684.563;1813
684.625;1806
684.688;1804
684.750;1804
684.813;1801
684.875;1794
684.938;1791
685.000;1787
685.063;1796
685.125;1801
685.188;1809
685.250;1818
685.313;1823
685.375;1831
685.438;1848
685.500;1848
685.563;1845
685.625;1843
685.688;1831
685.750;1823
685.813;1799
685.875;1782
685.938;1748
686.000;1733
686.063;1706
686.125;1674
686.188;1662
686.250;1701
686.313;1735
686.375;1784
686.438;1813
686.500;1828
686.563;1855
686.625;1872
686.688;1882
686.750;1904
686.813;1923
686.875;1921
686.938;1938
687.000;1950
687.063;1948
687.125;1945
687.188;1950
687.250;1943
687.313;1948
687.375;1945
687.438;1948
687.500;1940
687.563;1945
687.625;1931
687.688;1928
687.750;1921
687.813;1904
687.875;1894
687.938;1894
688.000;1877
688.063;1872
688.125;1884
688.188;1884
688.250;1887
688.313;1875
688.375;1872
688.438;1862
688.500;1857
688.563;1845
688.625;1840
688.688;1840
688.750;1838
688.813;1833
688.875;1833
688.938;1838
689.000;1840
689.063;1838
689.125;1850
689.188;1840
689.250;1840
689.313;1840
689.375;1838
689.438;1835
689.500;1826
689.563;1828
689.625;1838
689.688;1835
689.750;1831
689.813;1823
689.875;1818
689.938;1806
690.000;1796
690.063;1791
690.125;1774
690.188;1752
690.250;1738
690.313;1733
690.375;1730
690.438;1701
690.500;1701
690.563;1699
690.625;1716
690.688;1740
690.750;1794
690.813;1816
690.875;1857
690.938;1892
691.000;1906
691.063;1931
691.125;1945
691.188;1950
691.250;1962
691.313;1989
691.375;1992
691.438;2009
691.500;2021
691.563;2033
691.625;2045
691.688;2053
691.750;2053
691.813;2050
691.875;2045
691.938;2023
692.000;2014
692.063;2009
692.125;2004
692.188;1997
692.250;1982
692.313;1979
692.375;1967
692.438;1953
692.500;1943
692.563;1948
692.625;1933
692.688;1936
692.750;1948
692.813;1945
692.875;1953
692.938;1953
693.000;1953
693.063;1958
693.125;1955
693.188;1943
693.250;1936
693.313;1918
693.375;1879
693.438;1862
693.500;1835
693.563;1826
693.625;1818
693.688;1809
693.750;1796
693.813;1777
693.875;1765
693.938;1743
694.000;1730
694.063;1723
694.125;1723
694.188;1723
694.250;1718
694.313;1718
694.375;1711
694.438;1721
694.500;1711
694.563;1716
694.625;1706
694.688;1694
694.750;1687
694.813;1682
694.875;1667
694.938;1638
695.000;1650
695.063;1640
695.125;1650
695.188;1669
695.250;1687
695.313;1701
695.375;1723
695.438;1738
695.500;1752
695.563;1765
695.625;1772
695.688;1757
695.750;1745
695.813;1748
695.875;1755
695.938;1748
696.000;1743
696.063;1740
696.125;1760
696.188;1738
696.250;1726
696.313;1711
696.375;1701
696.438;1694
696.500;1679
696.563;1665
696.625;1669
696.688;1679
696.750;1682
696.813;1677
696.875;1662
696.938;1645
697.000;1633
697.063;1611
697.125;1611
697.188;1586
697.250;1584
697.313;1574
697.375;1567
697.438;1557
697.500;1557
697.563;1564
697.625;1562
697.688;1564
697.750;1569
697.813;1586
697.875;1596
697.938;1611
698.000;1611
698.063;1608
698.125;1606
698.188;1596
698.250;1584
698.313;1572
698.375;1557
698.438;1550
698.500;1550
698.563;1547
698.625;1547
698.688;1557
698.750;1555
698.813;1557
698.875;1552
698.938;1547
699.000;1545
699.063;1550
699.125;1545
699.188;1545
699.250;1557
699.313;1574
699.375;1569
699.438;1586
699.500;1589
699.563;1599
699.625;1599
699.688;1589
699.750;1582
699.813;1564
699.875;1545
699.938;1518
700.000;1503
700.063;1464
700.125;1435
700.188;1437
700.250;1462
700.313;1506
700.375;1560
700.438;1596
700.500;1618
700.563;1640
700.625;1652
700.688;1667
700.750;1691
700.813;1706
700.875;1721
700.938;1748
701.000;1750
701.063;1760
701.125;1765
701.188;1762
701.250;1757
701.313;1755
701.375;1760
701.438;1750
701.500;1743
701.563;1740
701.625;1730
701.688;1726
701.750;1718
701.813;1696
701.875;1687
701.938;1679
702.000;1662
702.063;1647
702.125;1660
702.188;1665
702.250;1657
702.313;1652
702.375;1647
702.438;1625
702.500;1608
702.563;1599
702.625;1591
702.688;1591
702.750;1594
702.813;1560
702.875;1557
702.938;1552
703.000;1555
703.063;1552
703.125;1552
703.188;1552
703.250;1545
703.313;1550
703.375;1542
703.438;1545
703.500;1538
703.563;1538
703.625;1545
703.688;1533
703.750;1542
703.813;1533
703.875;1525
703.938;1518
704.000;1506
704.063;1491
704.125;1486
704.188;1474
704.250;1464
704.313;1452
704.375;1459
704.438;1445
704.500;1440
704.563;1445
704.625;1481
704.688;1506
704.750;1577
704.813;1613
704.875;1650
704.938;1691
705.000;1721
705.063;1733
705.125;1748
705.188;1772
705.250;1770
705.313;1782
705.375;1804
705.438;1806
705.500;1823
705.563;1835
705.625;1855
705.688;1860
705.750;1855
705.813;1853
705.875;1845
705.938;1833
706.000;1823
706.063;1809
706.125;1794
706.188;1789
706.250;1779
706.313;1774
706.375;1765
706.438;1760
706.500;1760
706.563;1745
706.625;1745
706.688;1743
706.750;1733
706.813;1738
706.875;1743
706.938;1743
707.000;1745
707.063;1743
707.125;1726
707.188;1711
707.250;1694
707.313;1684
707.375;1650
707.438;1621
707.500;1601
707.563;1569
707.625;1569
707.688;1542
707.750;1525
707.813;1525
707.875;1513
707.938;1503
708.000;1455
708.063;1433
708.125;1401
708.188;1386
708.250;1376
708.313;1372
708.375;1367
708.438;1359
708.500;1350
708.563;1350
708.625;1347
708.688;1330
708.750;1323
708.813;1313
708.875;1303
708.938;1291
709.000;1296
709.063;1296
709.125;1311
709.188;1323
709.250;1337
709.313;1372
709.375;1389
709.438;1398
709.500;1430
709.563;1445
709.625;1445
709.688;1455
709.750;1455
709.813;1450
709.875;1455
709.938;1455
710.000;1472
710.063;1474
710.125;1491
710.188;1481
710.250;1477
710.313;1462
710.375;1452
710.438;1445
710.500;1442
710.563;1433
710.625;1425
710.688;1437
710.750;1442
710.813;1433
710.875;1418
710.938;1425
711.000;1413
711.063;1408
711.125;1386
711.188;1381
711.250;1376
711.313;1367
711.375;1372
711.438;1362
711.500;1359
711.563;1359
711.625;1362
711.688;1364
711.750;1379
711.813;1386
711.875;1394
711.938;1389
712.000;1391
712.063;1384
712.125;1381
712.188;1359
712.250;1347
712.313;1328
712.375;1315
712.438;1303
712.500;1289
712.563;1284
712.625;1281
712.688;1271
712.750;1271
712.813;1269
712.875;1259
712.938;1250
713.000;1240
713.063;1235
713.125;1232
713.188;1230
713.250;1220
713.313;1228
713.375;1235
713.438;1230
713.500;1235
713.563;1247
713.625;1245
713.688;1247
713.750;1240
713.813;1235
713.875;1225
713.938;1201
714.000;1201
714.063;1188
714.125;1186
714.188;1193
714.250;1201
714.313;1225
714.375;1247
714.438;1284
714.500;1298
714.563;1311
714.625;1330
714.688;1352
714.750;1376
714.813;1406
714.875;1406
714.938;1433
715.000;1445
715.063;1457
715.125;1467
715.188;1477
715.250;1472
715.313;1474
715.375;1486
715.438;1489
715.500;1486
715.563;1481
715.625;1472
715.688;1472
715.750;1472
715.813;1462
715.875;1450
715.938;1452
716.000;1428
716.063;1425
716.125;1445
716.188;1428
716.250;1430
716.313;1425
716.375;1420
716.438;1406
716.500;1396
716.563;1379
716.625;1374
716.688;1354
716.750;1347
716.813;1345
716.875;1330
716.938;1311
717.000;1306
717.063;1296
717.125;1298
717.188;1303
717.250;1284
717.313;1281
717.375;1271
717.438;1264
717.500;1252
717.563;1257
717.625;1240
717.688;1225
717.750;1215
717.813;1201
717.875;1188
717.938;1181
718.000;1181
718.063;1179
718.125;1166
718.188;1159
718.250;1164
718.313;1174
718.375;1159
718.438;1164
718.500;1162
718.563;1164
718.625;1176
718.688;1201
718.750;1230
718.813;1315
718.875;1435
718.938;1489
719.000;1481
719.063;1442
719.125;1437
719.188;1403
719.250;1389
719.313;1401
719.375;1406
719.438;1430
719.500;1442
719.563;1464
719.625;1484
719.688;1489
719.750;1489
719.813;1494
719.875;1501
719.938;1494
720.000;1477
720.063;1479
720.125;1464
720.188;1477
720.250;1481
720.313;1472
720.375;1474
720.438;1472
720.500;1477
720.563;1472
720.625;1469
720.688;1467
720.750;1462
720.813;1479
720.875;1491
720.938;1491
721.000;1501
721.063;1508
721.125;1499
721.188;1494
721.250;1479
721.313;1455
721.375;1435
721.438;1413
721.500;1398
721.563;1372
721.625;1354
721.688;1335
721.750;1318
721.813;1279
721.875;1250
721.938;1218
722.000;1193
722.063;1184
722.125;1171
722.188;1169
722.250;1169
722.313;1169
722.375;1169
722.438;1169
722.500;1171
722.563;1169
722.625;1169
722.688;1176
722.750;1159
722.813;1154
722.875;1154
722.938;1152
723.000;1145
723.063;1140
723.125;1147
723.188;1147
723.250;1145
723.313;1142
723.375;1154
723.438;1166
723.500;1169
723.563;1184
723.625;1193
723.688;1198
723.750;1201
723.813;1208
723.875;1210
723.938;1215
724.000;1223
724.063;1223
724.125;1230
724.188;1235
724.250;1232
724.313;1247
724.375;1245
724.438;1240
724.500;1237
724.563;1230
724.625;1237
724.688;1250
724.750;1247
724.813;1240
724.875;1225
724.938;1237
725.000;1228
725.063;1230
725.125;1218
725.188;1218
725.250;1208
725.313;1193
725.375;1198
725.438;1188
725.500;1184
725.563;1193
725.625;1188
725.688;1188
725.750;1193
725.813;1191
725.875;1184
725.938;1181
726.000;1186
726.063;1169
726.125;1159
726.188;1152
726.250;1142
726.313;1132
726.375;1135
726.438;1130
726.500;1130
726.563;1118
726.625;1120
726.688;1127
726.750;1125
726.813;1113
726.875;1118
726.938;1120
727.000;1118
727.063;1125
727.125;1125
727.188;1137
727.250;1127
727.313;1135
727.375;1145
727.438;1145
727.500;1135
727.563;1135
727.625;1132
727.688;1125
727.750;1127
727.813;1113
727.875;1115
727.938;1110
728.000;1108
728.063;1105
728.125;1098
728.188;1096
728.250;1101
728.313;1101
728.375;1103
728.438;1108
728.500;1115
728.563;1120
728.625;1120
728.688;1125
728.750;1162
728.813;1171
728.875;1184
728.938;1210
729.000;1213
729.063;1247
729.125;1247
729.188;1254
729.250;1259
729.313;1262
729.375;1252
729.438;1240
729.500;1250
729.563;1250
729.625;1245
729.688;1228
729.750;1225
729.813;1218
729.875;1230
729.938;1276
730.000;1306
730.063;1298
730.125;1276
730.188;1279
730.250;1247
730.313;1237
730.375;1223
730.438;1215
730.500;1203
730.563;1193
730.625;1193
730.688;1184
730.750;1186
730.813;1181
730.875;1174
730.938;1174
731.000;1174
731.063;1166
731.125;1162
731.188;1166
731.250;1157
731.313;1147
731.375;1142
731.438;1132
731.500;1145
731.563;1130
731.625;1130
731.688;1130
731.750;1137
731.813;1125
731.875;1130
731.938;1118
732.000;1115
732.063;1108
732.125;1105
732.188;1096
732.250;1096
732.313;1098
732.375;1098
732.438;1096
732.500;1086
732.563;1081
732.625;1086
732.688;1093
732.750;1091
732.813;1101
732.875;1096
732.938;1096
733.000;1096
733.063;1108
733.125;1108
733.188;1113
733.250;1105
733.313;1113
733.375;1130
733.438;1127
733.500;1135
733.563;1159
733.625;1166
733.688;1169
733.750;1176
733.813;1181
733.875;1184
733.938;1174
734.000;1171
734.063;1166
734.125;1186
734.188;1179
734.250;1191
734.313;1188
734.375;1201
734.438;1213
734.500;1218
734.563;1223
734.625;1230
734.688;1232
734.750;1237
734.813;1235
734.875;1242
734.938;1250
735.000;1245
735.063;1250
735.125;1247
735.188;1245
735.250;1223
735.313;1213
735.375;1196
735.438;1188
735.500;1184
735.563;1171
735.625;1164
735.688;1162
735.750;1157
735.813;1149
735.875;1132
735.938;1137
736.000;1130
736.063;1120
736.125;1137
736.188;1120
736.250;1123
736.313;1130
736.375;1125
736.438;1127
736.500;1130
736.563;1113
736.625;1120
736.688;1123
736.750;1113
736.813;1120
736.875;1105
736.938;1105
737.000;1103
737.063;1103
737.125;1096
737.188;1103
737.250;1103
737.313;1105
737.375;1115
737.438;1110
737.500;1118
737.563;1110
737.625;1113
737.688;1118
737.750;1108
737.813;1108
737.875;1105
737.938;1115
738.000;1113
738.063;1113
738.125;1108
738.188;1118
738.250;1113
738.313;1115
738.375;1115
738.438;1110
738.500;1101
738.563;1101
738.625;1098
738.688;1105
738.750;1101
738.813;1108
738.875;1110
738.938;1101
739.000;1101
739.063;1098
739.125;1098
739.188;1098
739.250;1086
739.313;1088
739.375;1088
739.438;1096
739.500;1088
739.563;1096
739.625;1098
739.688;1096
739.750;1101
739.813;1101
739.875;1105
739.938;1103
740.000;1103
740.063;1103
740.125;1103
740.188;1101
740.250;1108
740.313;1096
740.375;1108
740.438;1118
740.500;1123
740.563;1132
740.625;1142
740.688;1142
740.750;1149
740.813;1169
740.875;1206
740.938;1372
741.000;1501
741.063;1562
741.125;1533
741.188;1472
741.250;1457
741.313;1340
741.375;1223
741.438;1171
741.500;1154
741.563;1147
741.625;1130
741.688;1130
741.750;1130
741.813;1123
741.875;1120
741.938;1113
742.000;1105
742.063;1108
742.125;1096
742.188;1081
742.250;1086
742.313;1081
742.375;1088
742.438;1083
742.500;1091
742.563;1096
742.625;1098
742.688;1091
742.750;1103
742.813;1103
742.875;1113
742.938;1115
743.000;1115
743.063;1110
743.125;1115
743.188;1115
743.250;1113
743.313;1115
743.375;1118
743.438;1113
743.500;1108
743.563;1101
743.625;1103
743.688;1108
743.750;1098
743.813;1105
743.875;1088
743.938;1098
744.000;1096
744.063;1101
744.125;1093
744.188;1108
744.250;1103
744.313;1093
744.375;1093
744.438;1091
744.500;1088
744.563;1088
744.625;1088
744.688;1088
744.750;1091
744.813;1091
744.875;1093
744.938;1088
745.000;1083
745.063;1091
745.125;1086
745.188;1081
745.250;1088
745.313;1088
745.375;1086
745.438;1091
745.500;1081
745.563;1093
745.625;1083
745.688;1088
745.750;1083
745.813;1088
745.875;1088
745.938;1088
746.000;1086
746.063;1081
746.125;1081
746.188;1079
746.250;1083
746.313;1074
746.375;1069
746.438;1076
746.500;1079
746.563;1081
746.625;1083
746.688;1083
746.750;1086
746.813;1091
746.875;1093
746.938;1093
747.000;1098
747.063;1093
747.125;1096
747.188;1098
747.250;1096
747.313;1108
747.375;1103
747.438;1108
747.500;1108
747.563;1123
747.625;1118
747.688;1125
747.750;1123
747.813;1110
747.875;1103
747.938;1108
748.000;1113
748.063;1110
748.125;1093
748.188;1098
748.250;1086
748.313;1101
748.375;1103
748.438;1108
748.500;1101
748.563;1103
748.625;1101
748.688;1108
748.750;1091
748.813;1110
748.875;1105
748.938;1110
749.000;1110
749.063;1105
749.125;1110
749.188;1108
749.250;1110
749.313;1101
749.375;1096
749.438;1091
749.500;1093
749.563;1079
749.625;1086
749.688;1081
749.750;1083
749.813;1086
749.875;1081
749.938;1074
750.000;1076
750.063;1066
750.125;1079
750.188;1074
750.250;1081
750.313;1079
750.375;1071
750.438;1071
750.500;1076
750.563;1083
750.625;1083
750.688;1081
750.750;1081
750.813;1081
750.875;1076
750.938;1086
751.000;1076
751.063;1083
751.125;1086
751.188;1086
751.250;1091
751.313;1098
751.375;1098
751.438;1103
751.500;1113
751.563;1127
751.625;1135
751.688;1125
751.750;1149
751.813;1154
751.875;1169
751.938;1201
752.000;1232
752.063;1274
752.125;1291
752.188;1279
752.250;1250
752.313;1232
752.375;1196
752.438;1166
752.500;1152
752.563;1132
752.625;1120
752.688;1110
752.750;1103
752.813;1105
752.875;1093
752.938;1098
753.000;1091
753.063;1091
753.125;1086
753.188;1086
753.250;1083
753.313;1088
753.375;1083
753.438;1076
753.500;1086
753.563;1076
753.625;1071
753.688;1076
753.750;1076
753.813;1076
753.875;1069
753.938;1081
754.000;1076
754.063;1076
754.125;1069
754.188;1069
754.250;1064
754.313;1069
754.375;1069
754.438;1069
754.500;1074
754.563;1064
754.625;1066
754.688;1064
754.750;1069
754.813;1069
754.875;1066
754.938;1062
755.000;1071
755.063;1069
755.125;1069
755.188;1069
755.250;1064
755.313;1066
755.375;1069
755.438;1071
755.500;1062
755.563;1059
755.625;1069
755.688;1066
755.750;1062
755.813;1057
755.875;1062
755.938;1071
756.000;1064
756.063;1071
756.125;1064
756.188;1059
756.250;1062
756.313;1064
756.375;1066
756.438;1071
756.500;1069
756.563;1069
756.625;1071
756.688;1076
756.750;1074
756.813;1076
756.875;1069
756.938;1074
757.000;1079
757.063;1074
757.125;1079
757.188;1079
757.250;1074
757.313;1081
757.375;1079
757.438;1076
757.500;1081
757.563;1076
757.625;1088
757.688;1079
757.750;1074
757.813;1076
757.875;1074
757.938;1069
758.000;1081
758.063;1079
758.125;1071
758.188;1064
758.250;1069
758.313;1071
758.375;1066
758.438;1071
758.500;1069
758.563;1069
758.625;1059
758.688;1066
758.750;1074
758.813;1069
758.875;1071
758.938;1064
759.000;1069
759.063;1062
759.125;1059
759.188;1064
759.250;1069
759.313;1069
759.375;1062
759.438;1069
759.500;1066
759.563;1059
759.625;1059
759.688;1062
759.750;1064
759.813;1062
759.875;1054
759.938;1059
760.000;1069
760.063;1064
760.125;1057
760.188;1074
760.250;1057
760.313;1057
760.375;1064
760.438;1071
760.500;1076
760.563;1066
760.625;1062
760.688;1064
760.750;1066
760.813;1069
760.875;1064
760.938;1064
761.000;1069
761.063;1076
761.125;1076
761.188;1083
761.250;1079
761.313;1071
761.375;1074
761.438;1083
761.500;1079
761.563;1086
761.625;1088
761.688;1093
761.750;1086
761.813;1081
761.875;1086
761.938;1083
762.000;1083
762.063;1088
762.125;1083
762.188;1076
762.250;1083
762.313;1096
762.375;1101
762.438;1110
762.500;1101
762.563;1105
762.625;1120
762.688;1125
762.750;1135
762.813;1152
762.875;1162
762.938;1174
763.000;1228
763.063;1408
763.125;1513
763.188;1577
763.250;1525
763.313;1474
763.375;1452
763.438;1325
763.500;1201
763.563;1142
763.625;1123
763.688;1113
763.750;1103
763.813;1098
763.875;1096
763.938;1093
764.000;1093
764.063;1088
764.125;1081
764.188;1081
764.250;1079
764.313;1074
764.375;1074
764.438;1069
764.500;1062
764.563;1066
764.625;1066
764.688;1074
764.750;1064
764.813;1064
764.875;1057
764.938;1069
765.000;1062
765.063;1066
765.125;1069
765.188;1066
765.250;1062
765.313;1064
765.375;1062
765.438;1066
765.500;1066
765.563;1071
765.625;1066
765.688;1076
765.750;1071
765.813;1069
765.875;1062
765.938;1071
766.000;1069
766.063;1071
766.125;1064
766.188;1066
766.250;1066
766.313;1066
766.375;1066
766.438;1071
766.500;1066
766.563;1069
766.625;1069
766.688;1069
766.750;1074
766.813;1079
766.875;1064
766.938;1066
767.000;1069
767.063;1064
767.125;1062
767.188;1069
767.250;1071
767.313;1069
767.375;1074
767.438;1071
767.500;1069
767.563;1066
767.625;1066
767.688;1066
767.750;1066
767.813;1071
767.875;1071
767.938;1062
768.000;1064
768.063;1064
768.125;1062
768.188;1064
768.250;1069
768.313;1066
768.375;1071
768.438;1069
768.500;1071
768.563;1064
768.625;1069
768.688;1059
768.750;1066
768.813;1062
768.875;1062
768.938;1071
769.000;1064
769.063;1054
769.125;1064
769.188;1064
769.250;1054
769.313;1057
769.375;1066
769.438;1057
769.500;1057
769.563;1064
769.625;1064
769.688;1059
769.750;1059
769.813;1054
769.875;1062
769.938;1064
770.000;1054
770.063;1059
770.125;1062
770.188;1057
770.250;1059
770.313;1054
770.375;1062
770.438;1054
770.500;1049
770.563;1059
770.625;1064
770.688;1059
770.750;1057
770.813;1064
770.875;1062
770.938;1064
771.000;1057
771.063;1062
771.125;1066
771.188;1069
771.250;1069
771.313;1071
771.375;1071
771.438;1074
771.500;1076
771.563;1064
771.625;1057
771.688;1066
771.750;1074
771.813;1062
771.875;1071
771.938;1074
772.000;1064
772.063;1062
772.125;1066
772.188;1069
772.250;1069
772.313;1074
772.375;1069
772.438;1074
772.500;1081
772.563;1074
772.625;1062
772.688;1064
772.750;1066
772.813;1071
772.875;1066
772.938;1074
773.000;1066
773.063;1066
773.125;1069
773.188;1074
773.250;1071
773.313;1081
773.375;1079
773.438;1079
773.500;1093
773.563;1086
773.625;1086
773.688;1093
773.750;1101
773.813;1105
773.875;1118
773.938;1127
774.000;1142
774.063;1162
774.125;1191
774.188;1223
774.250;1240
774.313;1215
774.375;1201
774.438;1179
774.500;1147
774.563;1120
774.625;1105
774.688;1096
774.750;1088
774.813;1091
774.875;1081
774.938;1083
775.000;1083
775.063;1076
775.125;1083
775.188;1083
775.250;1076
775.313;1076
775.375;1066
775.438;1083
775.500;1074
775.563;1076
775.625;1057
775.688;1074
775.750;1071
775.813;1076
775.875;1069
775.938;1069
776.000;1062
776.063;1066
776.125;1069
776.188;1081
776.250;1066
776.313;1062
776.375;1069
776.438;1064
776.500;1076
776.563;1071
776.625;1066
776.688;1069
776.750;1069
776.813;1071
776.875;1074
776.938;1066
777.000;1074
777.063;1074
777.125;1076
777.188;1069
777.250;1074
777.313;1066
777.375;1064
777.438;1071
777.500;1069
777.563;1069
777.625;1066
777.688;1071
777.750;1069
777.813;1064
777.875;1071
777.938;1074
778.000;1071
778.063;1069
778.125;1074
778.188;1064
778.250;1057
778.313;1062
778.375;1064
778.438;1062
778.500;1066
778.563;1062
778.625;1062
778.688;1059
778.750;1066
778.813;1074
778.875;1064
778.938;1059
779.000;1062
779.063;1064
779.125;1054
779.188;1057
779.250;1059
779.313;1059
779.375;1062
779.438;1064
779.500;1062
779.563;1054
779.625;1062
779.688;1064
779.750;1066
779.813;1064
779.875;1069
779.938;1071
780.000;1064
780.063;1064
780.125;1064
780.188;1054
780.250;1062
780.313;1047
780.375;1062
780.438;1059
780.500;1062
780.563;1049
780.625;1057
780.688;1057
780.750;1059
780.813;1057
780.875;1052
780.938;1054
781.000;1062
781.063;1062
781.125;1062
781.188;1064
781.250;1059
781.313;1059
781.375;1059
781.438;1052
781.500;1054
781.563;1059
781.625;1062
781.688;1069
781.750;1062
781.813;1064
781.875;1059
781.938;1069
782.000;1064
782.063;1069
782.125;1074
782.188;1071
782.250;1064
782.313;1066
782.375;1074
782.438;1071
782.500;1066
782.563;1069
782.625;1071
782.688;1066
782.750;1069
782.813;1064
782.875;1062
782.938;1057
783.000;1064
783.063;1059
783.125;1064
783.188;1066
783.250;1069
783.313;1054
783.375;1069
783.438;1069
783.500;1071
783.563;1062
783.625;1062
783.688;1079
783.750;1069
783.813;1074
783.875;1066
783.938;1069
784.000;1069
784.063;1066
784.125;1074
784.188;1064
784.250;1062
784.313;1069
784.375;1071
784.438;1074
784.500;1079
784.563;1081
784.625;1088
784.688;1088
784.750;1103
784.813;1096
784.875;1115
784.938;1120
785.000;1130
785.063;1149
785.125;1206
785.188;1406
785.250;1484
785.313;1545
785.375;1494
785.438;1445
785.500;1418
785.563;1286
785.625;1181
785.688;1130
785.750;1113
785.813;1108
785.875;1098
785.938;1091
786.000;1088
786.063;1086
786.125;1083
786.188;1083
786.250;1074
786.313;1071
786.375;1069
786.438;1064
786.500;1069
786.563;1076
786.625;1059
786.688;1064
786.750;1064
786.813;1074
786.875;1074
786.938;1064
787.000;1071
787.063;1071
787.125;1079
787.188;1074
787.250;1066
787.313;1062
787.375;1066
787.438;1062
787.500;1064
787.563;1069
787.625;1066
787.688;1064
787.750;1064
787.813;1071
787.875;1064
787.938;1064
788.000;1071
788.063;1071
788.125;1066
788.188;1064
788.250;1066
788.313;1079
788.375;1059
788.438;1071
788.500;1064
788.563;1074
788.625;1066
788.688;1069
788.750;1066
788.813;1062
788.875;1054
788.938;1062
789.000;1064
789.063;1062
789.125;1064
789.188;1057
789.250;1059
789.313;1062
789.375;1064
789.438;1064
789.500;1054
789.563;1054
789.625;1062
789.688;1059
789.750;1066
789.813;1064
789.875;1062
789.938;1057
790.000;1059
790.063;1064
790.125;1059
790.188;1059
790.250;1062
790.313;1054
790.375;1059
790.438;1062
790.500;1062
790.563;1057
790.625;1062
790.688;1062
790.750;1066
790.813;1064
790.875;1064
790.938;1064
791.000;1062
791.063;1059
791.125;1059
791.188;1069
791.250;1057
791.313;1059
791.375;1062
791.438;1064
791.500;1064
791.563;1054
791.625;1066
791.688;1062
791.750;1062
791.813;1059
791.875;1064
791.938;1069
792.000;1066
792.063;1066
792.125;1059
792.188;1062
792.250;1069
792.313;1071
792.375;1066
792.438;1069
792.500;1064
792.563;1066
792.625;1066
792.688;1064
792.750;1062
792.813;1069
792.875;1071
792.938;1066
793.000;1064
793.063;1069
793.125;1071
793.188;1062
793.250;1062
793.313;1066
793.375;1074
793.438;1071
793.500;1081
793.563;1064
793.625;1076
793.688;1059
793.750;1071
793.813;1069
793.875;1059
793.938;1066
794.000;1071
794.063;1071
794.125;1066
794.188;1064
794.250;1064
794.313;1054
794.375;1062
794.438;1069
794.500;1074
794.563;1066
794.625;1071
794.688;1074
794.750;1062
794.813;1071
794.875;1076
794.938;1064
795.000;1057
795.063;1064
795.125;1066
795.188;1071
795.250;1069
795.313;1071
795.375;1074
795.438;1076
795.500;1086
795.563;1083
795.625;1086
795.688;1088
795.750;1096
795.813;1105
795.875;1110
795.938;1113
796.000;1123
796.063;1135
796.125;1145
796.188;1176
796.250;1213
796.313;1223
796.375;1240
796.438;1230
796.500;1210
796.563;1181
796.625;1152
796.688;1127
796.750;1105
796.813;1101
796.875;1093
796.938;1088
797.000;1086
797.063;1088
797.125;1088
797.188;1079
797.250;1083
797.313;1081
797.375;1081
797.438;1083
797.500;1074
797.563;1079
797.625;1079
797.688;1074
797.750;1079
797.813;1074
797.875;1083
797.938;1076
798.000;1069
798.063;1069
798.125;1081
798.188;1071
798.250;1066
798.313;1066
798.375;1071
798.438;1069
798.500;1062
798.563;1062
798.625;1074
798.688;1074
798.750;1071
798.813;1071
798.875;1066
798.938;1069
799.000;1066
799.063;1062
799.125;1069
799.188;1069
799.250;1071
799.313;1066
799.375;1066
799.438;1071
799.500;1062
799.563;1071
799.625;1062
799.688;1059
799.750;1066
799.813;1064
799.875;1062
799.938;1069
800.000;1057
800.063;1062
800.125;1069
800.188;1057
800.250;1066
800.313;1062
800.375;1054
800.438;1062
800.500;1069
800.563;1062
800.625;1071
800.688;1066
800.750;1069
800.813;1052
800.875;1059
800.938;1064
801.000;1069
801.063;1066
801.125;1059
801.188;1064
801.250;1062
801.313;1059
801.375;1064
801.438;1057
801.500;1059
801.563;1059
801.625;1074
801.688;1062
801.750;1069
801.813;1069
801.875;1066
801.938;1059
802.000;1064
802.063;1062
802.125;1066
802.188;1062
802.250;1069
802.313;1066
802.375;1064
802.438;1062
802.500;1062
802.563;1071
802.625;1062
802.688;1069
802.750;1066
802.813;1066
802.875;1071
802.938;1069
803.000;1076
803.063;1069
803.125;1069
803.188;1064
803.250;1071
803.313;1066
803.375;1062
803.438;1071
803.500;1064
803.563;1069
803.625;1064
803.688;1064
803.750;1064
803.813;1066
803.875;1066
803.938;1059
804.000;1066
804.063;1069
804.125;1064
804.188;1066
804.250;1069
804.313;1069
804.375;1064
804.438;1069
804.500;1062
804.563;1057
804.625;1064
804.688;1066
804.750;1062
804.813;1066
804.875;1069
804.938;1059
805.000;1057
805.063;1069
805.125;1069
805.188;1059
805.250;1066
805.313;1066
805.375;1064
805.438;1066
805.500;1069
805.563;1074
805.625;1069
805.688;1059
805.750;1066
805.813;1074
805.875;1071
805.938;1076
806.000;1059
806.063;1069
806.125;1064
806.188;1066
806.250;1074
806.313;1064
806.375;1074
806.438;1076
806.500;1081
806.563;1081
806.625;1081
806.688;1091
806.750;1103
806.813;1103
806.875;1113
806.938;1110
807.000;1118
807.063;1130
807.125;1140
807.188;1162
807.250;1225
807.313;1447
807.375;1496
807.438;1557
807.500;1491
807.563;1452
807.625;1420
807.688;1281
807.750;1181
807.813;1140
807.875;1120
807.938;1103
808.000;1101
808.063;1101
808.125;1096
808.188;1088
808.250;1091
808.313;1083
808.375;1088
808.438;1076
808.500;1079
808.563;1079
808.625;1081
808.688;1079
808.750;1071
808.813;1079
808.875;1069
808.938;1074
809.000;1066
809.063;1071
809.125;1074
809.188;1062
809.250;1064
809.313;1064
809.375;1066
809.438;1066
809.500;1071
809.563;1074
809.625;1071
809.688;1064
809.750;1064
809.813;1062
809.875;1064
809.938;1071
810.000;1064
810.063;1066
810.125;1069
810.188;1079
810.250;1074
810.313;1062
810.375;1066
810.438;1062
810.500;1064
810.563;1066
810.625;1064
810.688;1069
810.750;1062
810.813;1064
810.875;1069
810.938;1062
811.000;1066
811.063;1064
811.125;1062
811.188;1066
811.250;1066
811.313;1059
811.375;1064
811.438;1066
811.500;1071
811.563;1064
811.625;1059
811.688;1057
811.750;1069
811.813;1066
811.875;1069
811.938;1069
812.000;1064
812.063;1071
812.125;1057
812.188;1074
812.250;1071
812.313;1062
812.375;1059
812.438;1069
812.500;1066
812.563;1064
812.625;1069
812.688;1062
812.750;1066
812.813;1069
812.875;1069
812.938;1069
813.000;1076
813.063;1074
813.125;1076
813.188;1071
813.250;1076
813.313;1074
813.375;1062
813.438;1074
813.500;1066
813.563;1069
813.625;1064
813.688;1074
813.750;1074
813.813;1076
813.875;1074
813.938;1074
814.000;1071
814.063;1069
814.125;1074
814.188;1071
814.250;1076
814.313;1074
814.375;1064
814.438;1064
814.500;1059
814.563;1064
814.625;1076
814.688;1066
814.750;1059
814.813;1074
814.875;1069
814.938;1066
815.000;1071
815.063;1069
815.125;1069
815.188;1074
815.250;1074
815.313;1079
815.375;1066
815.438;1074
815.500;1076
815.563;1076
815.625;1071
815.688;1081
815.750;1066
815.813;1066
815.875;1066
815.938;1069
816.000;1057
816.063;1071
816.125;1059
816.188;1064
816.250;1074
816.313;1074
816.375;1074
816.438;1066
816.500;1066
816.563;1069
816.625;1079
816.688;1071
816.750;1069
816.813;1071
816.875;1081
816.938;1069
817.000;1074
817.063;1069
817.125;1083
817.188;1076
817.250;1081
817.313;1081
817.375;1083
817.438;1083
817.500;1083
817.563;1083
817.625;1088
817.688;1098
817.750;1096
817.813;1093
817.875;1098
817.938;1115
818.000;1113
818.063;1130
818.125;1135
818.188;1147
818.250;1164
818.313;1179
818.375;1250
818.438;1262
818.500;1279
818.563;1245
818.625;1235
818.688;1206
818.750;1171
818.813;1145
818.875;1132
818.938;1118
819.000;1115
819.063;1103
819.125;1105
819.188;1098
819.250;1101
819.313;1096
819.375;1101
819.438;1086
819.500;1091
819.563;1088
819.625;1081
819.688;1081
819.750;1081
819.813;1076
819.875;1076
819.938;1079
820.000;1076
820.063;1083
820.125;1088
820.188;1081
820.250;1076
820.313;1076
820.375;1074
820.438;1069
820.500;1074
820.563;1076
820.625;1074
820.688;1071
820.750;1074
820.813;1074
820.875;1069
820.938;1071
821.000;1066
821.063;1066
821.125;1076
821.188;1071
821.250;1074
821.313;1076
821.375;1074
821.438;1076
821.500;1069
821.563;1069
821.625;1059
821.688;1059
821.750;1062
821.813;1069
821.875;1074
821.938;1071
822.000;1074
822.063;1076
822.125;1071
822.188;1064
822.250;1066
822.313;1074
822.375;1074
822.438;1069
822.500;1066
822.563;1066
822.625;1069
822.688;1069
822.750;1071
822.813;1076
822.875;1076
822.938;1076
823.000;1071
823.063;1066
823.125;1071
823.188;1064
823.250;1074
823.313;1071
823.375;1069
823.438;1076
823.500;1074
823.563;1069
823.625;1076
823.688;1066
823.750;1079
823.813;1074
823.875;1076
823.938;1081
824.000;1081
824.063;1069
824.125;1071
824.188;1069
824.250;1079
824.313;1069
824.375;1079
824.438;1069
824.500;1074
824.563;1071
824.625;1074
824.688;1071
824.750;1064
824.813;1069
824.875;1074
824.938;1069
825.000;1071
825.063;1066
825.125;1066
825.188;1066
825.250;1066
825.313;1069
825.375;1069
825.438;1066
825.500;1069
825.563;1069
825.625;1071
825.688;1074
825.750;1074
825.813;1074
825.875;1076
825.938;1064
826.000;1074
826.063;1069
826.125;1069
826.188;1071
826.250;1069
826.313;1069
826.375;1064
826.438;1076
826.500;1074
826.563;1074
826.625;1074
826.688;1069
826.750;1074
826.813;1064
826.875;1076
826.938;1071
827.000;1069
827.063;1066
827.125;1069
827.188;1071
827.250;1071
827.313;1074
827.375;1076
827.438;1074
827.500;1069
827.563;1071
827.625;1069
827.688;1076
827.750;1066
827.813;1071
827.875;1074
827.938;1081
828.000;1076
828.063;1074
828.125;1076
828.188;1081
828.250;1079
828.313;1083
828.375;1081
828.438;1083
828.500;1088
828.563;1083
828.625;1091
828.688;1098
828.750;1093
828.813;1103
828.875;1110
828.938;1110
829.000;1110
829.063;1123
829.125;1127
829.188;1145
829.250;1152
829.313;1174
829.375;1240
829.438;1469
829.500;1513
829.563;1557
829.625;1494
829.688;1459
829.750;1408
829.813;1271
829.875;1171
829.938;1132
830.000;1115
830.063;1115
830.125;1103
830.188;1101
830.250;1108
830.313;1088
830.375;1098
830.438;1096
830.500;1086
830.563;1086
830.625;1091
830.688;1096
830.750;1086
830.813;1076
830.875;1086
830.938;1083
831.000;1091
831.063;1093
831.125;1088
831.188;1083
831.250;1083
831.313;1088
831.375;1076
831.438;1083
831.500;1083
831.563;1083
831.625;1079
831.688;1079
831.750;1083
831.813;1081
831.875;1081
831.938;1079
832.000;1079
832.063;1079
832.125;1079
832.188;1076
832.250;1081
832.313;1081
832.375;1088
832.438;1088
832.500;1071
832.563;1079
832.625;1083
832.688;1079
832.750;1071
832.813;1076
832.875;1074
832.938;1079
833.000;1079
833.063;1071
833.125;1081
833.188;1079
833.250;1086
833.313;1083
833.375;1081
833.438;1086
833.500;1081
833.563;1081
833.625;1076
833.688;1086
833.750;1091
833.813;1083
833.875;1076
833.938;1079
834.000;1083
834.063;1083
834.125;1086
834.188;1083
834.250;1088
834.313;1081
834.375;1086
834.438;1081
834.500;1086
834.563;1093
834.625;1086
834.688;1086
834.750;1083
834.813;1081
834.875;1074
834.938;1076
835.000;1079
835.063;1076
835.125;1086
835.188;1081
835.250;1079
835.313;1079
835.375;1081
835.438;1076
835.500;1071
835.563;1079
835.625;1074
835.688;1079
835.750;1071
835.813;1079
835.875;1071
835.938;1088
836.000;1079
836.063;1071
836.125;1079
836.188;1079
836.250;1069
836.313;1079
836.375;1074
836.438;1079
836.500;1076
836.563;1074
836.625;1076
836.688;1074
836.750;1091
836.813;1079
836.875;1081
836.938;1081
837.000;1074
837.063;1076
837.125;1086
837.188;1079
837.250;1071
837.313;1098
837.375;1076
837.438;1079
837.500;1074
837.563;1083
837.625;1086
837.688;1081
837.750;1074
837.813;1079
837.875;1083
837.938;1091
838.000;1088
838.063;1088
838.125;1081
838.188;1081
838.250;1079
838.313;1088
838.375;1086
838.438;1091
838.500;1086
838.563;1091
838.625;1088
838.688;1083
838.750;1091
838.813;1081
838.875;1088
838.938;1091
839.000;1079
839.063;1086
839.125;1098
839.188;1096
839.250;1088
839.313;1086
839.375;1088
839.438;1093
839.500;1096
839.563;1098
839.625;1096
839.688;1098
839.750;1096
839.813;1093
839.875;1093
839.938;1098
840.000;1101
840.063;1103
840.125;1101
840.188;1101
840.250;1105
840.313;1115
840.375;1120
840.438;1142
840.500;1242
840.563;1262
840.625;1291
840.688;1242
840.750;1218
840.813;1196
840.875;1157
840.938;1132
841.000;1127
841.063;1127
841.125;1120
841.188;1127
841.250;1120
841.313;1127
841.375;1135
841.438;1125
841.500;1140
841.563;1152
841.625;1159
841.688;1169
841.750;1169
841.813;1162
841.875;1174
841.938;1164
842.000;1157
842.063;1152
842.125;1149
842.188;1152
842.250;1142
842.313;1142
842.375;1135
842.438;1132
842.500;1142
842.563;1142
842.625;1147
842.688;1154
842.750;1166
842.813;1166
842.875;1174
842.938;1166
843.000;1169
843.063;1166
843.125;1164
843.188;1157
843.250;1154
843.313;1145
843.375;1142
843.438;1132
843.500;1137
843.563;1120
843.625;1123
843.688;1125
843.750;1127
843.813;1130
843.875;1137
843.938;1135
844.000;1137
844.063;1135
844.125;1140
844.188;1130
844.250;1127
844.313;1130
844.375;1135
844.438;1135
844.500;1130
844.563;1130
844.625;1130
844.688;1127
844.750;1130
844.813;1132
844.875;1135
844.938;1137
845.000;1157
845.063;1164
845.125;1166
845.188;1169
845.250;1166
845.313;1174
845.375;1181
845.438;1174
845.500;1169
845.563;1169
845.625;1171
845.688;1162
845.750;1154
845.813;1157
845.875;1142
845.938;1145
846.000;1140
846.063;1152
846.125;1159
846.188;1157
846.250;1162
846.313;1169
846.375;1164
846.438;1154
846.500;1154
846.563;1154
846.625;1149
846.688;1142
846.750;1137
846.813;1147
846.875;1142
846.938;1142
847.000;1140
847.063;1147
847.125;1152
847.188;1142
847.250;1142
847.313;1142
847.375;1154
847.438;1149
847.500;1159
847.563;1166
847.625;1157
847.688;1169
847.750;1179
847.813;1174
847.875;1176
847.938;1181
848.000;1179
848.063;1186
848.125;1174
848.188;1169
848.250;1171
848.313;1162
848.375;1157
848.438;1140
848.500;1127
848.563;1115
848.625;1113
848.688;1103
848.750;1101
848.813;1101
848.875;1098
848.938;1098
849.000;1103
849.063;1098
849.125;1098
849.188;1101
849.250;1098
849.313;1103
849.375;1096
849.438;1110
849.500;1108
849.563;1101
849.625;1108
849.688;1098
849.750;1105
849.813;1105
849.875;1108
849.938;1108
850.000;1098
850.063;1096
850.125;1096
850.188;1101
850.250;1103
850.313;1103
850.375;1103
850.438;1096
850.500;1098
850.563;1105
850.625;1103
850.688;1105
850.750;1113
850.813;1115
850.875;1108
850.938;1118
851.000;1108
851.063;1110
851.125;1123
851.188;1127
851.250;1127
851.313;1140
851.375;1145
851.438;1162
851.500;1198
851.563;1367
851.625;1408
851.688;1437
851.750;1379
851.813;1354
851.875;1293
851.938;1196
852.000;1147
852.063;1137
852.125;1140
852.188;1135
852.250;1145
852.313;1145
852.375;1137
852.438;1123
852.500;1113
852.563;1110
852.625;1115
852.688;1113
852.750;1113
852.813;1105
852.875;1113
852.938;1118
853.000;1123
853.063;1140
853.125;1162
853.188;1159
853.250;1174
853.313;1159
853.375;1145
853.438;1140
853.500;1152
853.563;1152
853.625;1159
853.688;1149
853.750;1137
853.813;1137
853.875;1130
853.938;1147
854.000;1142
854.063;1130
854.125;1130
854.188;1132
854.250;1132
854.313;1137
854.375;1137
854.438;1140
854.500;1135
854.563;1127
854.625;1132
854.688;1118
854.750;1123
854.813;1123
854.875;1125
854.938;1118
855.000;1149
855.063;1201
855.125;1230
855.188;1264
855.250;1276
855.313;1296
855.375;1308
855.438;1315
855.500;1337
855.563;1367
855.625;1381
855.688;1394
855.750;1406
855.813;1408
855.875;1413
855.938;1413
856.000;1401
856.063;1408
856.125;1391
856.188;1394
856.250;1391
856.313;1396
856.375;1401
856.438;1398
856.500;1416
856.563;1420
856.625;1433
856.688;1428
856.750;1464
856.813;1462
856.875;1479
856.938;1486
857.000;1481
857.063;1474
857.125;1469
857.188;1472
857.250;1457
857.313;1447
857.375;1435
857.438;1420
857.500;1396
857.563;1384
857.625;1381
857.688;1376
857.750;1398
857.813;1403
857.875;1413
857.938;1413
858.000;1423
858.063;1430
858.125;1440
858.188;1428
858.250;1425
858.313;1420
858.375;1423
858.438;1416
858.500;1411
858.563;1403
858.625;1391
858.688;1381
858.750;1379
858.813;1381
858.875;1384
858.938;1394
859.000;1408
859.063;1423
859.125;1428
859.188;1428
859.250;1433
859.313;1442
859.375;1433
859.438;1428
859.500;1418
859.563;1413
859.625;1398
859.688;1391
859.750;1381
859.813;1364
859.875;1354
859.938;1352
860.000;1359
860.063;1369
860.125;1364
860.188;1384
860.250;1384
860.313;1396
860.375;1374
860.438;1381
860.500;1394
860.563;1391
860.625;1376
860.688;1364
860.750;1367
860.813;1374
860.875;1376
860.938;1384
861.000;1376
861.063;1386
861.125;1374
861.188;1391
861.250;1396
861.313;1408
861.375;1418
861.438;1430
861.500;1437
861.563;1442
861.625;1437
861.688;1462
861.750;1481
861.813;1489
861.875;1501
861.938;1506
862.000;1508
862.063;1511
862.125;1506
862.188;1499
862.250;1486
862.313;1474
862.375;1442
862.438;1398
862.500;1342
862.563;1315
862.625;1330
862.688;1330
862.750;1345
862.813;1296
862.875;1276
862.938;1225
863.000;1184
863.063;1162
863.125;1169
863.188;1142
863.250;1125
863.313;1125
863.375;1135
863.438;1140
863.500;1137
863.563;1135
863.625;1137
863.688;1137
863.750;1132
863.813;1157
863.875;1147
863.938;1164
864.000;1164
864.063;1152
864.125;1159
864.188;1157
864.250;1154
864.313;1162
864.375;1174
864.438;1171
864.500;1181
864.563;1179
864.625;1169
864.688;1174
864.750;1176
864.813;1171
864.875;1186
864.938;1193
865.000;1179
865.063;1188
865.125;1201
865.188;1237
865.250;1232
865.313;1254
865.375;1240
865.438;1269
865.500;1281
865.563;1306
865.625;1306
865.688;1318
865.750;1325
865.813;1303
865.875;1264
865.938;1254
866.000;1220
866.063;1201
866.125;1237
866.188;1247
866.250;1267
866.313;1259
866.375;1245
866.438;1198
866.500;1179
866.563;1171
866.625;1159
866.688;1196
866.750;1176
866.813;1213
866.875;1215
866.938;1225
867.000;1230
867.063;1276
867.125;1342
867.188;1364
867.250;1391
867.313;1347
867.375;1335
867.438;1315
867.500;1347
867.563;1369
867.625;1376
867.688;1345
867.750;1330
867.813;1296
867.875;1284
867.938;1313
868.000;1311
868.063;1335
868.125;1286
868.188;1293
868.250;1293
868.313;1318
868.375;1318
868.438;1313
868.500;1269
868.563;1259
868.625;1267
868.688;1245
868.750;1264
868.813;1245
868.875;1250
868.938;1254
869.000;1359
869.063;1457
869.125;1538
869.188;1560
869.250;1589
869.313;1611
869.375;1623
869.438;1645
869.500;1655
869.563;1672
869.625;1691
869.688;1711
869.750;1718
869.813;1721
869.875;1721
869.938;1721
870.000;1716
